subNo condition blockNo trialNo trialID currentFrequency cueTargetInterval randomPreCueInterval response responseAccuracy startTime responseTime RT
8 regular 1 1 1 59 2 0.113 faster 0 1.901136e+06 1.901139e+06 3.024
8 regular 1 2 2 57 2 0.259 faster 0 1.901141e+06 1.901144e+06 2.802
8 regular 1 3 3 55 2 0.314 slower 1 1.901145e+06 1.901148e+06 2.719
8 regular 1 4 4 55 2 0.356 slower 1 1.901149e+06 1.901152e+06 2.688
8 regular 1 5 5 63 2 0.256 faster 1 1.901153e+06 1.901156e+06 2.628
8 regular 1 6 6 63 2 0.167 faster 1 1.901157e+06 1.901160e+06 2.921
8 regular 1 7 7 59 2 0.366 faster 0 1.901162e+06 1.901165e+06 2.787
8 regular 1 8 8 63 2 0.430 faster 1 1.901167e+06 1.901170e+06 2.697
8 regular 1 9 9 63 2 0.317 faster 1 1.901172e+06 1.901175e+06 3.261
8 regular 1 10 10 61 2 0.290 faster 1 1.901176e+06 1.901179e+06 2.818
8 regular 1 11 11 59 2 0.178 faster 0 1.901181e+06 1.901184e+06 2.684
8 regular 1 12 12 58 2 0.579 faster 0 1.901185e+06 1.901188e+06 2.895
8 regular 1 13 13 57 2 0.462 faster 0 1.901190e+06 1.901193e+06 2.785
8 regular 1 14 14 56 2 0.132 faster 0 1.901194e+06 1.901197e+06 2.733
8 regular 1 15 15 65 2 0.126 faster 1 1.901198e+06 1.901201e+06 3.249
8 regular 1 16 16 64 2 0.124 faster 1 1.901202e+06 1.901205e+06 2.851
8 regular 1 17 17 56 2 0.531 faster 0 1.901210e+06 1.901213e+06 3.130
8 regular 1 18 18 65 2 0.555 faster 1 1.901214e+06 1.901217e+06 2.882
8 regular 1 19 19 56 2 0.156 faster 0 1.901218e+06 1.901220e+06 2.669
8 regular 1 20 20 55 2 0.572 slower 1 1.901222e+06 1.901225e+06 3.134
8 regular 1 21 21 55 2 0.595 faster 0 1.901227e+06 1.901230e+06 2.654
8 regular 1 22 22 54 2 0.121 faster 0 1.901232e+06 1.901234e+06 2.790
8 regular 1 23 23 67 2 0.221 faster 1 1.901235e+06 1.901238e+06 2.882
8 regular 1 24 24 54 2 0.240 faster 0 1.901239e+06 1.901243e+06 3.743
8 regular 1 25 25 67 2 0.363 faster 1 1.901245e+06 1.901247e+06 2.786
8 regular 1 26 26 67 2 0.519 faster 1 1.901249e+06 1.901252e+06 2.931
8 regular 1 27 27 54 2 0.484 faster 0 1.901258e+06 1.901261e+06 3.041
8 regular 1 28 28 53 2 0.525 faster 0 1.901263e+06 1.901266e+06 2.879
8 regular 1 29 29 68 2 0.332 faster 1 1.901268e+06 1.901271e+06 3.192
8 regular 1 30 30 68 2 0.457 faster 1 1.901272e+06 1.901276e+06 3.504
8 regular 1 31 31 53 2 0.329 slower 1 1.901279e+06 1.901282e+06 2.914
8 regular 1 32 32 53 2 0.408 slower 1 1.901285e+06 1.901287e+06 2.757
8 regular 1 33 33 66 2 0.467 slower 0 1.901289e+06 1.901293e+06 3.177
8 regular 1 34 34 67 2 0.393 faster 1 1.901294e+06 1.901298e+06 3.758
8 regular 1 35 35 67 2 0.207 faster 1 1.901299e+06 1.901303e+06 3.897
8 regular 1 36 36 66 2 0.511 faster 1 1.901305e+06 1.901308e+06 2.791
8 regular 1 37 37 54 2 0.237 faster 0 1.901310e+06 1.901313e+06 3.245
8 regular 1 38 38 53 2 0.480 faster 0 1.901315e+06 1.901318e+06 2.604
8 regular 1 39 39 52 2 0.114 slower 1 1.901318e+06 1.901321e+06 2.877
8 regular 1 40 40 67 2 0.304 faster 1 1.901323e+06 1.901326e+06 3.129
8 regular 1 41 41 53 2 0.335 slower 1 1.901327e+06 1.901330e+06 2.755
8 regular 1 42 42 66 2 0.183 faster 1 1.901332e+06 1.901334e+06 2.701
8 regular 1 43 43 54 2 0.209 slower 1 1.901336e+06 1.901338e+06 2.704
8 regular 1 44 44 55 2 0.179 faster 0 1.901341e+06 1.901344e+06 2.833
8 regular 1 45 45 66 2 0.518 faster 1 1.901345e+06 1.901348e+06 2.678
8 regular 1 46 46 66 2 0.316 faster 1 1.901351e+06 1.901354e+06 3.063
8 regular 1 47 47 55 2 0.147 faster 0 1.901356e+06 1.901359e+06 2.815
8 regular 1 48 48 54 2 0.274 faster 0 1.901360e+06 1.901363e+06 2.884
8 regular 1 49 49 67 2 0.413 faster 1 1.901365e+06 1.901367e+06 2.729
8 regular 1 50 50 67 2 0.302 faster 1 1.901369e+06 1.901372e+06 3.660
8 regular 1 51 51 66 2 0.409 faster 1 1.901374e+06 1.901377e+06 2.932
8 regular 1 52 52 54 2 0.530 faster 0 1.901378e+06 1.901381e+06 2.840
8 regular 1 53 53 53 2 0.367 faster 0 1.901383e+06 1.901386e+06 2.910
8 regular 1 54 54 68 2 0.279 faster 1 1.901388e+06 1.901390e+06 2.667
8 regular 1 55 55 53 2 0.142 faster 0 1.901392e+06 1.901395e+06 3.048
8 regular 1 56 56 52 2 0.424 faster 0 1.901397e+06 1.901400e+06 2.937
8 regular 1 57 57 51 2 0.306 faster 0 1.901403e+06 1.901406e+06 3.597
8 regular 1 58 58 50 2 0.240 faster 0 1.901407e+06 1.901410e+06 2.901
8 regular 1 59 59 49 2 0.485 slower 1 1.901412e+06 1.901415e+06 3.039
8 regular 1 60 60 71 2 0.344 faster 1 1.901417e+06 1.901419e+06 2.682
8 regular 1 61 61 50 2 0.463 faster 0 1.901421e+06 1.901424e+06 3.199
8 regular 1 62 62 71 2 0.181 faster 1 1.901425e+06 1.901428e+06 2.671
8 regular 1 63 63 49 2 0.527 slower 1 1.901430e+06 1.901433e+06 2.717
8 regular 1 64 64 50 2 0.202 faster 0 1.901434e+06 1.901437e+06 3.287
8 regular 1 65 65 71 2 0.134 faster 1 1.901439e+06 1.901442e+06 2.650
8 regular 1 66 66 71 2 0.213 faster 1 1.901442e+06 1.901445e+06 2.812
8 regular 1 67 67 70 2 0.382 faster 1 1.901448e+06 1.901451e+06 2.719
8 regular 1 68 68 50 2 0.330 slower 1 1.901453e+06 1.901456e+06 2.992
8 regular 1 69 69 51 2 0.133 faster 0 1.901456e+06 1.901459e+06 2.769
8 regular 1 70 70 70 2 0.167 faster 1 1.901461e+06 1.901464e+06 2.768
8 regular 1 71 71 70 2 0.475 faster 1 1.901466e+06 1.901468e+06 2.764
8 regular 1 72 72 51 2 0.114 faster 0 1.901470e+06 1.901472e+06 2.701
8 regular 1 73 73 70 2 0.275 faster 1 1.901473e+06 1.901476e+06 2.826
8 regular 1 74 74 70 2 0.448 faster 1 1.901477e+06 1.901480e+06 3.015
8 regular 1 75 75 51 2 0.298 slower 1 1.901483e+06 1.901486e+06 3.027
8 regular 1 76 76 51 2 0.410 slower 1 1.901489e+06 1.901492e+06 2.940
8 regular 1 77 77 68 2 0.291 faster 1 1.901494e+06 1.901496e+06 2.722
8 regular 1 78 78 52 2 0.520 faster 0 1.901497e+06 1.901500e+06 2.832
8 regular 1 79 79 51 2 0.452 faster 0 1.901505e+06 1.901508e+06 3.078
8 regular 1 80 80 50 2 0.294 slower 1 1.901510e+06 1.901512e+06 2.927
8 regular 1 81 81 51 2 0.247 faster 0 1.901515e+06 1.901517e+06 2.942
8 regular 1 82 82 70 2 0.274 faster 1 1.901518e+06 1.901521e+06 2.764
8 regular 1 83 83 50 2 0.521 slower 1 1.901523e+06 1.901526e+06 2.748
8 regular 1 84 84 69 2 0.326 faster 1 1.901526e+06 1.901529e+06 2.600
8 regular 1 85 85 51 2 0.269 faster 0 1.901531e+06 1.901534e+06 2.759
8 regular 1 86 86 70 2 0.265 faster 1 1.901535e+06 1.901538e+06 3.471
8 regular 1 87 87 69 2 0.253 faster 1 1.901540e+06 1.901543e+06 2.619
8 regular 1 88 88 69 2 0.506 faster 1 1.901545e+06 1.901548e+06 3.638
8 regular 1 89 89 68 2 0.164 faster 1 1.901556e+06 1.901559e+06 3.529
8 regular 1 90 90 68 2 0.534 faster 1 1.901561e+06 1.901564e+06 3.133
8 regular 1 91 91 67 2 0.161 faster 1 1.901566e+06 1.901570e+06 3.838
8 regular 1 92 92 67 2 0.150 slower 0 1.901571e+06 1.901574e+06 3.104
8 regular 1 93 93 68 2 0.488 faster 1 1.901576e+06 1.901579e+06 2.843
8 regular 1 94 94 67 2 0.242 faster 1 1.901581e+06 1.901584e+06 2.781
8 regular 1 95 95 67 2 0.304 faster 1 1.901585e+06 1.901589e+06 3.596
8 regular 1 96 96 54 2 0.206 slower 1 1.901590e+06 1.901593e+06 2.778
8 regular 1 97 97 66 2 0.188 faster 1 1.901594e+06 1.901597e+06 2.851
8 regular 1 98 98 55 2 0.422 slower 1 1.901598e+06 1.901601e+06 2.658
8 regular 1 99 99 65 2 0.191 slower 0 1.901602e+06 1.901605e+06 2.767
8 regular 1 100 100 66 2 0.428 slower 0 1.901607e+06 1.901609e+06 2.766
8 irregular 2 1 101 53 1.500000e+00 0.342 faster 0 1.901677e+06 1.901680e+06 2.979
8 irregular 2 2 102 68 2 0.465 faster 1 1.901681e+06 1.901684e+06 2.794
8 irregular 2 3 103 67 2 0.532 faster 1 1.901686e+06 1.901688e+06 2.597
8 irregular 2 4 104 67 2 0.481 faster 1 1.901690e+06 1.901693e+06 2.640
8 irregular 2 5 105 54 3 0.117 faster 0 1.901693e+06 1.901697e+06 3.632
8 irregular 2 6 106 53 3 0.370 faster 0 1.901698e+06 1.901702e+06 3.933
8 irregular 2 7 107 68 1.500000e+00 0.342 slower 0 1.901705e+06 1.901707e+06 2.366
8 irregular 2 8 108 51 2 0.255 faster 0 1.901709e+06 1.901711e+06 2.753
8 irregular 2 9 109 50 2.500000e+00 0.567 faster 0 1.901714e+06 1.901718e+06 3.313
8 irregular 2 10 110 49 1.500000e+00 0.456 slower 1 1.901720e+06 1.901722e+06 2.214
8 irregular 2 11 111 71 1 0.399 slower 0 1.901723e+06 1.901725e+06 2.132
8 irregular 2 12 112 72 2 0.494 faster 1 1.901727e+06 1.901730e+06 3.681
8 irregular 2 13 113 49 3 0.182 slower 1 1.901732e+06 1.901736e+06 3.705
8 irregular 2 14 114 71 2 0.430 faster 1 1.901738e+06 1.901740e+06 2.536
8 irregular 2 15 115 70 2.500000e+00 0.142 faster 1 1.901741e+06 1.901744e+06 3.107
8 irregular 2 16 116 70 3 0.264 faster 1 1.901745e+06 1.901749e+06 3.686
8 irregular 2 17 117 69 2.500000e+00 0.169 slower 0 1.901750e+06 1.901753e+06 3.203
8 irregular 2 18 118 50 3 0.480 slower 1 1.901755e+06 1.901759e+06 3.780
8 irregular 2 19 119 70 3 0.417 faster 1 1.901760e+06 1.901764e+06 3.604
8 irregular 2 20 120 69 1 0.104 slower 0 1.901766e+06 1.901768e+06 1.697
8 irregular 2 21 121 50 1.500000e+00 0.386 faster 0 1.901769e+06 1.901772e+06 2.884
8 irregular 2 22 122 71 1.500000e+00 0.461 none 2 1.901774e+06 1.901778e+06 4.500
8 irregular 2 23 123 49 1 0.471 slower 1 1.901779e+06 1.901781e+06 1.967
8 irregular 2 24 124 71 1 0.580 faster 1 1.901784e+06 1.901785e+06 1.735
8 irregular 2 25 125 70 2.500000e+00 0.358 slower 0 1.901786e+06 1.901790e+06 3.364
8 irregular 2 26 126 49 1.500000e+00 0.189 slower 1 1.901791e+06 1.901793e+06 2.091
8 irregular 2 27 127 71 3 0.257 faster 1 1.901795e+06 1.901799e+06 3.530
8 irregular 2 28 128 50 1.500000e+00 0.493 slower 1 1.901800e+06 1.901802e+06 2.213
8 irregular 2 29 129 50 1 0.313 slower 1 1.901803e+06 1.901805e+06 1.792
8 irregular 2 30 130 51 2.500000e+00 0.204 slower 1 1.901806e+06 1.901810e+06 3.461
8 irregular 2 31 131 69 2.500000e+00 0.144 faster 1 1.901811e+06 1.901814e+06 3.388
8 irregular 2 32 132 68 2 0.302 slower 0 1.901816e+06 1.901819e+06 2.895
8 irregular 2 33 133 51 3 0.368 faster 0 1.901820e+06 1.901824e+06 3.786
8 irregular 2 34 134 50 1.500000e+00 0.548 slower 1 1.901826e+06 1.901828e+06 2.088
8 irregular 2 35 135 70 1.500000e+00 0.588 faster 1 1.901830e+06 1.901832e+06 2.221
8 irregular 2 36 136 51 1 0.164 slower 1 1.901833e+06 1.901835e+06 1.617
8 irregular 2 37 137 51 2 0.321 slower 1 1.901836e+06 1.901839e+06 2.888
8 irregular 2 38 138 68 3 0.176 slower 0 1.901840e+06 1.901844e+06 3.712
8 irregular 2 39 139 69 1.500000e+00 0.450 slower 0 1.901845e+06 1.901848e+06 2.274
8 irregular 2 40 140 70 3 0.518 faster 1 1.901849e+06 1.901853e+06 3.978
8 irregular 2 41 141 50 1.500000e+00 0.298 slower 1 1.901854e+06 1.901857e+06 3.064
8 irregular 2 42 142 69 1 0.339 slower 0 1.901859e+06 1.901860e+06 1.888
8 irregular 2 43 143 50 1 0.238 slower 1 1.901862e+06 1.901864e+06 1.692
8 irregular 2 44 144 70 1 0.261 slower 0 1.901865e+06 1.901867e+06 1.588
8 irregular 2 45 145 49 2.500000e+00 0.486 slower 1 1.901868e+06 1.901872e+06 3.483
8 irregular 2 46 146 70 3 0.203 faster 1 1.901873e+06 1.901878e+06 4.226
8 irregular 2 47 147 50 1 0.395 slower 1 1.901879e+06 1.901881e+06 1.812
8 irregular 2 48 148 51 2.500000e+00 0.421 faster 0 1.901883e+06 1.901887e+06 4.107
8 irregular 2 49 149 50 1 0.409 slower 1 1.901888e+06 1.901890e+06 2.058
8 irregular 2 50 150 50 2.500000e+00 0.246 slower 1 1.901891e+06 1.901894e+06 3.321
8 irregular 2 51 151 69 3 0.357 faster 1 1.901896e+06 1.901901e+06 4.141
8 irregular 2 52 152 51 1 0.493 slower 1 1.901902e+06 1.901904e+06 1.817
8 irregular 2 53 153 68 3 0.185 faster 1 1.901905e+06 1.901910e+06 4.353
8 irregular 2 54 154 68 2.500000e+00 0.401 faster 1 1.901911e+06 1.901915e+06 3.328
8 irregular 2 55 155 53 3 0.149 faster 0 1.901916e+06 1.901921e+06 5.220
8 irregular 2 56 156 68 1 0.107 slower 0 1.901922e+06 1.901924e+06 1.803
8 irregular 2 57 157 51 1 0.481 slower 1 1.901926e+06 1.901928e+06 1.821
8 irregular 2 58 158 51 2 0.406 slower 1 1.901930e+06 1.901933e+06 2.989
8 irregular 2 59 159 52 2 0.244 faster 0 1.901935e+06 1.901940e+06 4.788
8 irregular 2 60 160 69 2 0.409 faster 1 1.901942e+06 1.901946e+06 4.007
8 irregular 2 61 161 51 1 0.253 slower 1 1.901947e+06 1.901949e+06 2.007
8 irregular 2 62 162 52 1.500000e+00 0.493 slower 1 1.901952e+06 1.901954e+06 2.282
8 irregular 2 63 163 52 2.500000e+00 0.503 faster 0 1.901956e+06 1.901959e+06 3.285
8 irregular 2 64 164 69 2 0.505 faster 1 1.901961e+06 1.901965e+06 4.097
8 irregular 2 65 165 68 1.500000e+00 0.509 faster 1 1.901967e+06 1.901970e+06 3.690
8 irregular 2 66 166 52 3 0.155 slower 1 1.901973e+06 1.901977e+06 4.261
8 irregular 2 67 167 67 2 0.263 faster 1 1.901979e+06 1.901982e+06 2.898
8 irregular 2 68 168 67 2.500000e+00 0.149 slower 0 1.901984e+06 1.901989e+06 5.040
8 irregular 2 69 169 68 1.500000e+00 0.339 faster 1 1.901990e+06 1.901993e+06 2.457
8 irregular 2 70 170 67 1.500000e+00 0.134 slower 0 1.901994e+06 1.901997e+06 2.465
8 irregular 2 71 171 68 1.500000e+00 0.333 faster 1 1.901999e+06 1.902002e+06 3.691
8 irregular 2 72 172 52 3 0.175 faster 0 1.902005e+06 1.902010e+06 4.674
8 irregular 2 73 173 51 1.500000e+00 0.134 faster 0 1.902012e+06 1.902015e+06 2.980
8 irregular 2 74 174 50 1.500000e+00 0.276 faster 0 1.902017e+06 1.902020e+06 3.378
8 irregular 2 75 175 49 2.500000e+00 0.329 faster 0 1.902022e+06 1.902025e+06 3.268
8 irregular 2 76 176 72 3 0.348 faster 1 1.902026e+06 1.902031e+06 4.091
8 irregular 2 77 177 71 2.500000e+00 0.264 faster 1 1.902032e+06 1.902037e+06 4.384
8 irregular 2 78 178 71 2.500000e+00 0.495 slower 0 1.902038e+06 1.902043e+06 4.209
8 irregular 2 79 179 72 1 0.471 faster 1 1.902044e+06 1.902048e+06 3.304
8 irregular 2 80 180 71 1.500000e+00 0.310 faster 1 1.902049e+06 1.902051e+06 2.642
8 irregular 2 81 181 71 1 0.285 faster 1 1.902053e+06 1.902055e+06 2.103
8 irregular 2 82 182 70 2.500000e+00 0.341 faster 1 1.902056e+06 1.902060e+06 3.429
8 irregular 2 83 183 70 3 0.300 faster 1 1.902062e+06 1.902066e+06 3.769
8 irregular 2 84 184 51 3 0.444 slower 1 1.902067e+06 1.902071e+06 4.099
8 irregular 2 85 185 69 2 0.440 faster 1 1.902073e+06 1.902075e+06 2.777
8 irregular 2 86 186 52 2 0.217 slower 1 1.902077e+06 1.902080e+06 3.063
8 irregular 2 87 187 52 2 0.436 faster 0 1.902081e+06 1.902084e+06 3.171
8 irregular 2 88 188 51 1 0.530 slower 1 1.902086e+06 1.902089e+06 2.745
8 irregular 2 89 189 68 2.500000e+00 0.583 faster 1 1.902091e+06 1.902094e+06 3.442
8 irregular 2 90 190 52 2 0.282 slower 1 1.902096e+06 1.902099e+06 2.802
8 irregular 2 91 191 53 3 0.413 faster 0 1.902100e+06 1.902104e+06 3.725
8 irregular 2 92 192 52 2 0.302 faster 0 1.902106e+06 1.902108e+06 2.719
8 irregular 2 93 193 51 2.500000e+00 0.254 faster 0 1.902109e+06 1.902112e+06 3.185
8 irregular 2 94 194 50 2.500000e+00 0.254 slower 1 1.902114e+06 1.902117e+06 3.421
8 irregular 2 95 195 70 1 0.596 faster 1 1.902119e+06 1.902121e+06 1.975
8 irregular 2 96 196 69 1 0.418 faster 1 1.902123e+06 1.902126e+06 2.891
8 irregular 2 97 197 51 2.500000e+00 0.533 slower 1 1.902127e+06 1.902131e+06 3.403
8 irregular 2 98 198 52 2 0.216 slower 1 1.902132e+06 1.902135e+06 2.915
8 irregular 2 99 199 68 1.500000e+00 0.352 slower 0 1.902137e+06 1.902140e+06 2.551
8 irregular 2 100 200 51 2 0.507 slower 1 1.902141e+06 1.902144e+06 2.840
8 regular 3 1 201 52 3 0.219 faster 0 1.902252e+06 1.902257e+06 5.135
8 regular 3 2 202 69 3 0.550 faster 1 1.902259e+06 1.902263e+06 4.133
8 regular 3 3 203 51 3 0.412 faster 0 1.902265e+06 1.902269e+06 3.757
8 regular 3 4 204 70 3 0.408 faster 1 1.902270e+06 1.902274e+06 3.655
8 regular 3 5 205 69 3 0.505 faster 1 1.902276e+06 1.902280e+06 4.278
8 regular 3 6 206 51 3 0.340 slower 1 1.902285e+06 1.902289e+06 3.779
8 regular 3 7 207 52 3 0.358 slower 1 1.902293e+06 1.902297e+06 3.883
8 regular 3 8 208 52 3 0.412 slower 1 1.902299e+06 1.902303e+06 4.513
8 regular 3 9 209 53 3 0.391 slower 1 1.902305e+06 1.902309e+06 4.287
8 regular 3 10 210 53 3 0.136 slower 1 1.902311e+06 1.902315e+06 4.076
8 regular 3 11 211 66 3 0.409 faster 1 1.902317e+06 1.902320e+06 3.766
8 regular 3 12 212 54 3 0.168 faster 0 1.902322e+06 1.902326e+06 3.762
8 regular 3 13 213 67 3 0.465 slower 0 1.902327e+06 1.902331e+06 3.731
8 regular 3 14 214 52 3 0.267 faster 0 1.902332e+06 1.902337e+06 4.447
8 regular 3 15 215 69 3 0.151 faster 1 1.902338e+06 1.902342e+06 3.780
8 regular 3 16 216 52 3 0.596 faster 0 1.902344e+06 1.902349e+06 4.517
8 regular 3 17 217 51 3 0.331 faster 0 1.902351e+06 1.902355e+06 3.839
8 regular 3 18 218 50 3 0.417 faster 0 1.902357e+06 1.902360e+06 3.802
8 regular 3 19 219 49 3 0.234 faster 0 1.902361e+06 1.902366e+06 4.920
8 regular 3 20 220 72 3 0.323 slower 0 1.902368e+06 1.902372e+06 4.139
8 regular 3 21 221 47 3 0.425 faster 0 1.902375e+06 1.902379e+06 3.908
8 regular 3 22 222 74 3 0.476 faster 1 1.902386e+06 1.902391e+06 4.713
8 regular 3 23 223 74 3 0.162 slower 0 1.902392e+06 1.902396e+06 4.226
8 regular 3 24 224 45 3 0.145 faster 0 1.902398e+06 1.902402e+06 4.031
8 regular 3 25 225 44 3 0.187 faster 0 1.902403e+06 1.902407e+06 3.722
8 regular 3 26 226 77 3 0.483 faster 1 1.902408e+06 1.902412e+06 3.916
8 regular 3 27 227 76 3 0.112 slower 0 1.902414e+06 1.902418e+06 4.174
8 regular 3 28 228 43 3 0.472 faster 0 1.902420e+06 1.902423e+06 3.809
8 regular 3 29 229 78 3 0.333 faster 1 1.902427e+06 1.902431e+06 4.410
8 regular 3 30 230 78 3 0.178 faster 1 1.902433e+06 1.902438e+06 4.952
8 regular 3 31 231 43 3 0.519 faster 0 1.902439e+06 1.902443e+06 3.715
8 regular 3 32 232 42 3 0.427 faster 0 1.902445e+06 1.902448e+06 3.718
8 regular 3 33 233 79 3 0.486 slower 0 1.902449e+06 1.902453e+06 3.758
8 regular 3 34 234 80 3 0.228 slower 0 1.902455e+06 1.902459e+06 4.172
8 regular 3 35 235 39 3 0.108 faster 0 1.902461e+06 1.902465e+06 3.900
8 regular 3 36 236 82 3 0.152 slower 0 1.902466e+06 1.902470e+06 3.709
8 regular 3 37 237 37 3 0.593 faster 0 1.902471e+06 1.902475e+06 3.653
8 regular 3 38 238 84 3 0.468 slower 0 1.902477e+06 1.902481e+06 4.384
8 regular 3 39 239 35 3 0.108 faster 0 1.902483e+06 1.902486e+06 3.706
8 regular 3 40 240 34 3 0.320 faster 0 1.902489e+06 1.902493e+06 3.907
8 regular 3 41 241 87 3 0.117 slower 0 1.902495e+06 1.902498e+06 3.808
8 regular 3 42 242 88 3 0.358 slower 0 1.902500e+06 1.902504e+06 3.999
8 regular 3 43 243 89 3 0.382 slower 0 1.902505e+06 1.902510e+06 4.104
8 regular 3 44 244 30 3 0.530 faster 0 1.902511e+06 1.902515e+06 3.986
8 regular 3 45 245 90 3 0.531 faster 1 1.902517e+06 1.902521e+06 3.877
8 regular 3 46 246 30 3 0.189 slower 1 1.902522e+06 1.902526e+06 3.837
8 regular 3 47 247 31 3 0.544 faster 0 1.902528e+06 1.902533e+06 5.852
8 regular 3 48 248 90 3 0.226 slower 0 1.902535e+06 1.902540e+06 4.333
8 regular 3 49 249 90 3 0.508 faster 1 1.902542e+06 1.902545e+06 3.713
8 regular 3 50 250 30 3 0.489 faster 0 1.902547e+06 1.902552e+06 4.618
8 regular 3 51 251 30 3 0.320 faster 0 1.902554e+06 1.902558e+06 3.552
8 regular 3 52 252 90 3 0.407 slower 0 1.902560e+06 1.902563e+06 3.886
8 regular 3 53 253 90 3 0.519 slower 0 1.902566e+06 1.902570e+06 3.908
8 regular 3 54 254 90 3 0.435 faster 1 1.902572e+06 1.902575e+06 3.724
8 regular 3 55 255 89 3 0.561 slower 0 1.902577e+06 1.902581e+06 3.982
8 regular 3 56 256 90 3 0.494 slower 0 1.902582e+06 1.902587e+06 4.789
8 regular 3 57 257 30 3 0.265 faster 0 1.902589e+06 1.902593e+06 3.939
8 regular 3 58 258 90 3 0.369 slower 0 1.902595e+06 1.902599e+06 3.934
8 regular 3 59 259 90 3 0.288 none 2 1.902601e+06 1.902607e+06 6.000
8 regular 3 60 260 90 3 0.310 slower 0 1.902608e+06 1.902613e+06 4.226
8 regular 3 61 261 90 3 0.469 slower 0 1.902614e+06 1.902618e+06 4.057
8 regular 3 62 262 90 3 0.600 slower 0 1.902619e+06 1.902623e+06 3.763
8 regular 3 63 263 90 3 0.437 slower 0 1.902625e+06 1.902631e+06 5.406
8 regular 3 64 264 30 3 0.554 slower 1 1.902633e+06 1.902639e+06 5.293
8 regular 3 65 265 90 3 0.401 faster 1 1.902641e+06 1.902646e+06 5.042
8 regular 3 66 266 31 3 0.224 slower 1 1.902648e+06 1.902651e+06 3.945
8 regular 3 67 267 89 3 0.294 faster 1 1.902653e+06 1.902659e+06 5.891
8 regular 3 68 268 32 3 0.201 slower 1 1.902661e+06 1.902665e+06 3.927
8 regular 3 69 269 88 3 0.540 slower 0 1.902667e+06 1.902672e+06 5.023
8 regular 3 70 270 89 3 0.149 faster 1 1.902674e+06 1.902677e+06 3.920
8 regular 3 71 271 32 3 0.246 slower 1 1.902679e+06 1.902683e+06 3.855
8 regular 3 72 272 32 3 0.526 slower 1 1.902685e+06 1.902689e+06 4.133
8 regular 3 73 273 33 3 0.586 slower 1 1.902692e+06 1.902696e+06 4.176
8 regular 3 74 274 87 3 0.375 faster 1 1.902698e+06 1.902702e+06 3.974
8 regular 3 75 275 34 3 0.288 slower 1 1.902702e+06 1.902707e+06 4.082
8 regular 3 76 276 34 3 0.312 slower 1 1.902708e+06 1.902712e+06 3.789
8 regular 3 77 277 35 3 0.487 slower 1 1.902713e+06 1.902717e+06 3.729
8 regular 3 78 278 35 3 0.292 slower 1 1.902718e+06 1.902722e+06 3.725
8 regular 3 79 279 84 3 0.513 faster 1 1.902724e+06 1.902728e+06 4.212
8 regular 3 80 280 36 3 0.463 slower 1 1.902731e+06 1.902735e+06 3.729
8 regular 3 81 281 83 3 0.451 faster 1 1.902736e+06 1.902741e+06 4.746
8 regular 3 82 282 83 3 0.348 faster 1 1.902742e+06 1.902747e+06 5.249
8 regular 3 83 283 38 3 0.589 slower 1 1.902749e+06 1.902753e+06 3.958
8 regular 3 84 284 82 3 0.217 faster 1 1.902754e+06 1.902759e+06 4.733
8 regular 3 85 285 39 3 0.346 slower 1 1.902761e+06 1.902765e+06 3.762
8 regular 3 86 286 39 3 0.309 slower 1 1.902767e+06 1.902771e+06 3.718
8 regular 3 87 287 40 3 0.487 slower 1 1.902772e+06 1.902775e+06 3.590
8 regular 3 88 288 80 3 0.588 faster 1 1.902777e+06 1.902780e+06 3.749
8 regular 3 89 289 41 3 0.556 slower 1 1.902782e+06 1.902786e+06 3.661
8 regular 3 90 290 79 3 0.501 faster 1 1.902788e+06 1.902792e+06 3.859
8 regular 3 91 291 78 3 0.374 faster 1 1.902794e+06 1.902798e+06 3.863
8 regular 3 92 292 78 3 0.489 faster 1 1.902799e+06 1.902803e+06 3.786
8 regular 3 93 293 43 3 0.447 slower 1 1.902806e+06 1.902809e+06 3.628
8 regular 3 94 294 77 3 0.182 faster 1 1.902810e+06 1.902814e+06 3.807
8 regular 3 95 295 44 3 0.505 slower 1 1.902816e+06 1.902820e+06 3.661
8 regular 3 96 296 76 3 0.118 faster 1 1.902821e+06 1.902826e+06 5.497
8 regular 3 97 297 45 3 0.478 faster 0 1.902828e+06 1.902834e+06 5.041
8 regular 3 98 298 44 3 0.296 faster 0 1.902835e+06 1.902840e+06 4.910
8 regular 3 99 299 77 3 0.228 faster 1 1.902842e+06 1.902847e+06 5.592
8 regular 3 100 300 43 3 0.134 faster 0 1.902849e+06 1.902853e+06 4.416
8 irregular 4 1 301 78 1.500000e+00 0.215 none 2 1.902935e+06 1.902940e+06 4.499
8 irregular 4 2 302 78 1.500000e+00 0.217 none 2 1.902940e+06 1.902945e+06 4.499
8 irregular 4 3 303 78 1 0.260 none 2 1.902946e+06 1.902950e+06 4.000
8 irregular 4 4 304 42 2 0.534 none 2 1.902951e+06 1.902956e+06 5.000
8 irregular 4 5 305 42 1.500000e+00 0.374 none 2 1.902957e+06 1.902962e+06 4.499
8 irregular 4 6 306 42 2.500000e+00 0.496 none 2 1.902963e+06 1.902969e+06 5.499
8 irregular 4 7 307 78 2.500000e+00 0.497 none 2 1.902973e+06 1.902979e+06 5.499
8 irregular 4 8 308 78 1 0.291 none 2 1.902980e+06 1.902984e+06 4.000
8 irregular 4 9 309 42 1 0.271 none 2 1.902985e+06 1.902989e+06 3.999
8 irregular 4 10 310 78 2.500000e+00 0.503 none 2 1.902990e+06 1.902996e+06 5.500
8 irregular 4 11 311 42 1 0.337 none 2 1.902997e+06 1.903001e+06 3.999
8 irregular 4 12 312 42 1.500000e+00 0.318 none 2 1.903002e+06 1.903006e+06 4.500
8 irregular 4 13 313 78 2 0.250 none 2 1.903007e+06 1.903012e+06 4.999
8 irregular 4 14 314 78 1.500000e+00 0.193 none 2 1.903013e+06 1.903018e+06 4.500
8 irregular 4 15 315 42 2.500000e+00 0.240 none 2 1.903026e+06 1.903031e+06 5.499
8 irregular 4 16 316 42 2.500000e+00 0.127 none 2 1.903033e+06 1.903038e+06 5.499
8 irregular 4 17 317 42 2 0.437 none 2 1.903041e+06 1.903046e+06 4.999
8 irregular 4 18 318 78 1 0.216 none 2 1.903048e+06 1.903052e+06 4.000
8 irregular 4 19 319 42 2 0.348 none 2 1.903053e+06 1.903058e+06 4.999
8 irregular 4 20 320 42 2.500000e+00 0.226 none 2 1.903059e+06 1.903065e+06 5.500
8 irregular 4 21 321 78 1 0.191 none 2 1.903069e+06 1.903073e+06 4.000
8 irregular 4 22 322 78 1 0.577 none 2 1.903076e+06 1.903080e+06 4.000
8 irregular 4 23 323 42 1.500000e+00 0.366 none 2 1.903081e+06 1.903086e+06 4.500
8 irregular 4 24 324 42 3 0.401 none 2 1.903087e+06 1.903093e+06 6.000
8 irregular 4 25 325 42 2.500000e+00 0.584 none 2 1.903094e+06 1.903099e+06 5.499
8 irregular 4 26 326 42 1 0.300 none 2 1.903103e+06 1.903107e+06 4.000
8 irregular 4 27 327 78 1.500000e+00 0.366 none 2 1.903108e+06 1.903113e+06 4.500
8 irregular 4 28 328 42 3 0.197 none 2 1.903114e+06 1.903120e+06 5.999
8 irregular 4 29 329 78 2 0.237 none 2 1.903122e+06 1.903127e+06 4.999
8 irregular 4 30 330 42 2 0.162 none 2 1.903128e+06 1.903133e+06 4.999
8 irregular 4 31 331 78 1.500000e+00 0.198 none 2 1.903134e+06 1.903138e+06 4.500
8 irregular 4 32 332 78 2.500000e+00 0.244 none 2 1.903147e+06 1.903152e+06 5.499
8 irregular 4 33 333 42 3 0.239 none 2 1.903153e+06 1.903159e+06 5.999
8 irregular 4 34 334 42 1.500000e+00 0.227 none 2 1.903163e+06 1.903168e+06 4.499
8 irregular 4 35 335 42 3 0.268 none 2 1.903169e+06 1.903175e+06 6.000
8 irregular 4 36 336 78 1.500000e+00 0.484 none 2 1.903176e+06 1.903180e+06 4.499
8 irregular 4 37 337 42 1 0.287 slower 1 1.903182e+06 1.903185e+06 2.153
8 irregular 4 38 338 77 2 0.109 faster 1 1.903188e+06 1.903190e+06 2.841
8 irregular 4 39 339 77 2 0.271 slower 0 1.903192e+06 1.903195e+06 3.098
8 irregular 4 40 340 42 2.500000e+00 0.540 none 2 1.903197e+06 1.903203e+06 5.500
8 irregular 4 41 341 78 1 0.136 faster 1 1.903205e+06 1.903207e+06 1.892
8 irregular 4 42 342 43 1.500000e+00 0.204 slower 1 1.903208e+06 1.903210e+06 2.435
8 irregular 4 43 343 43 1 0.213 slower 1 1.903213e+06 1.903216e+06 2.598
8 irregular 4 44 344 76 3 0.408 faster 1 1.903218e+06 1.903221e+06 3.712
8 irregular 4 45 345 76 2 0.316 faster 1 1.903223e+06 1.903226e+06 2.839
8 irregular 4 46 346 75 1 0.328 faster 1 1.903229e+06 1.903231e+06 1.669
8 irregular 4 47 347 45 2 0.561 slower 1 1.903232e+06 1.903235e+06 3.037
8 irregular 4 48 348 74 2.500000e+00 0.354 faster 1 1.903237e+06 1.903240e+06 3.169
8 irregular 4 49 349 46 2 0.585 slower 1 1.903243e+06 1.903246e+06 2.914
8 irregular 4 50 350 73 1.500000e+00 0.437 faster 1 1.903248e+06 1.903251e+06 2.136
8 irregular 4 51 351 47 3 0.492 slower 1 1.903252e+06 1.903255e+06 3.805
8 irregular 4 52 352 72 1.500000e+00 0.360 faster 1 1.903257e+06 1.903259e+06 2.404
8 irregular 4 53 353 72 3 0.124 faster 1 1.903261e+06 1.903264e+06 3.682
8 irregular 4 54 354 71 2.500000e+00 0.462 faster 1 1.903266e+06 1.903271e+06 4.817
8 irregular 4 55 355 71 3 0.438 faster 1 1.903274e+06 1.903278e+06 3.947
8 irregular 4 56 356 50 3 0.184 slower 1 1.903280e+06 1.903283e+06 3.744
8 irregular 4 57 357 70 2 0.402 faster 1 1.903285e+06 1.903289e+06 3.912
8 irregular 4 58 358 69 2 0.101 faster 1 1.903290e+06 1.903293e+06 2.820
8 irregular 4 59 359 51 1.500000e+00 0.218 slower 1 1.903295e+06 1.903297e+06 2.298
8 irregular 4 60 360 68 1.500000e+00 0.257 faster 1 1.903299e+06 1.903301e+06 2.226
8 irregular 4 61 361 52 2 0.551 faster 0 1.903302e+06 1.903306e+06 3.481
8 irregular 4 62 362 69 3 0.381 faster 1 1.903307e+06 1.903311e+06 3.914
8 irregular 4 63 363 52 3 0.496 faster 0 1.903312e+06 1.903316e+06 3.700
8 irregular 4 64 364 51 3 0.584 slower 1 1.903318e+06 1.903322e+06 3.902
8 irregular 4 65 365 51 2.500000e+00 0.175 slower 1 1.903323e+06 1.903327e+06 3.510
8 irregular 4 66 366 52 1 0.176 faster 0 1.903328e+06 1.903330e+06 1.617
8 irregular 4 67 367 51 1 0.454 faster 0 1.903331e+06 1.903334e+06 2.207
8 irregular 4 68 368 70 2 0.242 slower 0 1.903335e+06 1.903338e+06 2.904
8 irregular 4 69 369 49 2.500000e+00 0.582 faster 0 1.903340e+06 1.903344e+06 3.149
8 irregular 4 70 370 48 3 0.449 faster 0 1.903346e+06 1.903349e+06 3.769
8 irregular 4 71 371 73 1 0.146 faster 1 1.903351e+06 1.903353e+06 1.682
8 irregular 4 72 372 47 2.500000e+00 0.299 slower 1 1.903354e+06 1.903357e+06 3.269
8 irregular 4 73 373 72 1.500000e+00 0.513 faster 1 1.903364e+06 1.903367e+06 2.790
8 irregular 4 74 374 72 2 0.357 faster 1 1.903370e+06 1.903373e+06 2.571
8 irregular 4 75 375 49 2 0.154 slower 1 1.903374e+06 1.903377e+06 2.699
8 irregular 4 76 376 49 1.500000e+00 0.517 faster 0 1.903379e+06 1.903381e+06 2.332
8 irregular 4 77 377 72 2 0.584 faster 1 1.903383e+06 1.903385e+06 2.577
8 irregular 4 78 378 49 1.500000e+00 0.243 faster 0 1.903387e+06 1.903390e+06 2.708
8 irregular 4 79 379 72 2.500000e+00 0.379 slower 0 1.903392e+06 1.903395e+06 3.672
8 irregular 4 80 380 47 1 0.101 slower 1 1.903396e+06 1.903398e+06 2.305
8 irregular 4 81 381 47 3 0.134 slower 1 1.903399e+06 1.903403e+06 3.720
8 irregular 4 82 382 48 1 0.341 slower 1 1.903404e+06 1.903406e+06 1.839
8 irregular 4 83 383 72 1 0.491 faster 1 1.903408e+06 1.903410e+06 1.760
8 irregular 4 84 384 71 3 0.232 faster 1 1.903411e+06 1.903417e+06 5.307
8 irregular 4 85 385 49 1.500000e+00 0.549 faster 0 1.903419e+06 1.903421e+06 2.447
8 irregular 4 86 386 72 2.500000e+00 0.107 faster 1 1.903422e+06 1.903426e+06 3.298
8 irregular 4 87 387 71 2.500000e+00 0.217 faster 1 1.903428e+06 1.903431e+06 3.267
8 irregular 4 88 388 71 3 0.175 faster 1 1.903433e+06 1.903437e+06 3.720
8 irregular 4 89 389 50 1 0.255 slower 1 1.903438e+06 1.903440e+06 1.908
8 irregular 4 90 390 70 3 0.432 faster 1 1.903444e+06 1.903448e+06 3.699
8 irregular 4 91 391 69 2.500000e+00 0.471 faster 1 1.903449e+06 1.903452e+06 3.253
8 irregular 4 92 392 69 3 0.571 faster 1 1.903457e+06 1.903461e+06 4.339
8 irregular 4 93 393 68 1 0.497 faster 1 1.903463e+06 1.903465e+06 1.934
8 irregular 4 94 394 52 1.500000e+00 0.177 slower 1 1.903466e+06 1.903469e+06 2.374
8 irregular 4 95 395 53 2 0.396 faster 0 1.903470e+06 1.903473e+06 2.998
8 irregular 4 96 396 68 3 0.439 slower 0 1.903475e+06 1.903479e+06 3.828
8 irregular 4 97 397 51 2.500000e+00 0.119 slower 1 1.903480e+06 1.903484e+06 3.905
8 irregular 4 98 398 69 3 0.492 faster 1 1.903485e+06 1.903489e+06 3.790
8 irregular 4 99 399 68 2.500000e+00 0.398 faster 1 1.903490e+06 1.903494e+06 3.704
8 irregular 4 100 400 52 2 0.305 slower 1 1.903495e+06 1.903498e+06 2.799
8 regular 5 1 401 67 2.500000e+00 0.194 faster 1 1.903746e+06 1.903749e+06 3.154
8 regular 5 2 402 67 2.500000e+00 0.363 faster 1 1.903752e+06 1.903756e+06 4.196
8 regular 5 3 403 54 2.500000e+00 0.532 faster 0 1.903760e+06 1.903763e+06 3.180
8 regular 5 4 404 67 2.500000e+00 0.429 none 2 1.903764e+06 1.903770e+06 5.500
8 regular 5 5 405 67 2.500000e+00 0.349 faster 1 1.903771e+06 1.903775e+06 4.083
8 regular 5 6 406 53 2.500000e+00 0.382 faster 0 1.903776e+06 1.903779e+06 3.322
8 regular 5 7 407 68 2.500000e+00 0.325 faster 1 1.903781e+06 1.903784e+06 3.170
8 regular 5 8 408 67 2.500000e+00 0.342 faster 1 1.903786e+06 1.903789e+06 3.072
8 regular 5 9 409 53 2.500000e+00 0.153 faster 0 1.903789e+06 1.903793e+06 3.221
8 regular 5 10 410 52 2.500000e+00 0.191 slower 1 1.903794e+06 1.903797e+06 3.207
8 regular 5 11 411 67 2.500000e+00 0.372 faster 1 1.903799e+06 1.903802e+06 3.097
8 regular 5 12 412 67 2.500000e+00 0.563 faster 1 1.903803e+06 1.903806e+06 3.075
8 regular 5 13 413 54 2.500000e+00 0.545 faster 0 1.903808e+06 1.903811e+06 3.288
8 regular 5 14 414 67 2.500000e+00 0.593 faster 1 1.903812e+06 1.903816e+06 3.467
8 regular 5 15 415 53 2.500000e+00 0.339 faster 0 1.903817e+06 1.903821e+06 4.186
8 regular 5 16 416 52 2.500000e+00 0.507 slower 1 1.903823e+06 1.903826e+06 3.487
8 regular 5 17 417 53 2.500000e+00 0.224 faster 0 1.903828e+06 1.903831e+06 3.313
8 regular 5 18 418 68 2.500000e+00 0.277 faster 1 1.903832e+06 1.903835e+06 3.304
8 regular 5 19 419 52 2.500000e+00 0.351 slower 1 1.903836e+06 1.903840e+06 3.446
8 regular 5 20 420 53 2.500000e+00 0.378 faster 0 1.903843e+06 1.903846e+06 3.232
8 regular 5 21 421 52 2.500000e+00 0.264 slower 1 1.903847e+06 1.903851e+06 3.389
8 regular 5 22 422 68 2.500000e+00 0.595 faster 1 1.903853e+06 1.903856e+06 3.291
8 regular 5 23 423 67 2.500000e+00 0.316 faster 1 1.903857e+06 1.903861e+06 3.542
8 regular 5 24 424 53 2.500000e+00 0.314 faster 0 1.903862e+06 1.903866e+06 3.278
8 regular 5 25 425 68 2.500000e+00 0.590 faster 1 1.903867e+06 1.903871e+06 3.258
8 regular 5 26 426 67 2.500000e+00 0.253 faster 1 1.903872e+06 1.903875e+06 3.320
8 regular 5 27 427 67 2.500000e+00 0.328 faster 1 1.903876e+06 1.903880e+06 3.226
8 regular 5 28 428 66 2.500000e+00 0.565 faster 1 1.903881e+06 1.903884e+06 3.276
8 regular 5 29 429 54 2.500000e+00 0.528 faster 0 1.903891e+06 1.903895e+06 3.289
8 regular 5 30 430 53 2.500000e+00 0.354 slower 1 1.903896e+06 1.903899e+06 3.676
8 regular 5 31 431 66 2.500000e+00 0.319 faster 1 1.903901e+06 1.903904e+06 3.286
8 regular 5 32 432 66 2.500000e+00 0.583 slower 0 1.903906e+06 1.903909e+06 3.655
8 regular 5 33 433 67 2.500000e+00 0.242 faster 1 1.903911e+06 1.903914e+06 3.261
8 regular 5 34 434 54 2.500000e+00 0.132 faster 0 1.903915e+06 1.903920e+06 4.430
8 regular 5 35 435 53 2.500000e+00 0.441 slower 1 1.903921e+06 1.903925e+06 3.183
8 regular 5 36 436 53 2.500000e+00 0.187 slower 1 1.903926e+06 1.903929e+06 3.282
8 regular 5 37 437 66 2.500000e+00 0.524 faster 1 1.903931e+06 1.903934e+06 3.166
8 regular 5 38 438 66 2.500000e+00 0.581 faster 1 1.903935e+06 1.903938e+06 3.380
8 regular 5 39 439 55 2.500000e+00 0.400 slower 1 1.903940e+06 1.903943e+06 3.326
8 regular 5 40 440 55 2.500000e+00 0.134 faster 0 1.903944e+06 1.903947e+06 3.280
8 regular 5 41 441 54 2.500000e+00 0.320 slower 1 1.903948e+06 1.903951e+06 3.221
8 regular 5 42 442 65 2.500000e+00 0.375 faster 1 1.903952e+06 1.903956e+06 3.186
8 regular 5 43 443 65 2.500000e+00 0.362 faster 1 1.903957e+06 1.903960e+06 3.199
8 regular 5 44 444 64 2.500000e+00 0.381 faster 1 1.903961e+06 1.903964e+06 3.074
8 regular 5 45 445 64 2.500000e+00 0.565 faster 1 1.903966e+06 1.903969e+06 3.209
8 regular 5 46 446 57 2.500000e+00 0.151 slower 1 1.903970e+06 1.903973e+06 3.225
8 regular 5 47 447 57 2.500000e+00 0.389 slower 1 1.903975e+06 1.903978e+06 3.111
8 regular 5 48 448 58 2.500000e+00 0.468 none 2 1.903979e+06 1.903985e+06 5.500
8 regular 5 49 449 62 2.500000e+00 0.282 faster 1 1.903985e+06 1.903989e+06 3.092
8 regular 5 50 450 62 2.500000e+00 0.118 slower 0 1.903991e+06 1.903995e+06 3.910
8 regular 5 51 451 63 2.500000e+00 0.446 none 2 1.903997e+06 1.904002e+06 5.499
8 regular 5 52 452 63 2.500000e+00 0.523 faster 1 1.904003e+06 1.904007e+06 3.851
8 regular 5 53 453 58 2.500000e+00 0.264 slower 1 1.904008e+06 1.904012e+06 3.226
8 regular 5 54 454 62 2.500000e+00 0.212 faster 1 1.904013e+06 1.904016e+06 3.893
8 regular 5 55 455 59 2.500000e+00 0.196 faster 0 1.904017e+06 1.904021e+06 3.330
8 regular 5 56 456 58 2.500000e+00 0.560 none 2 1.904022e+06 1.904028e+06 5.499
8 regular 5 57 457 58 2.500000e+00 0.304 faster 0 1.904029e+06 1.904032e+06 3.398
8 regular 5 58 458 57 2.500000e+00 0.102 faster 0 1.904033e+06 1.904037e+06 3.392
8 regular 5 59 459 64 2.500000e+00 0.554 slower 0 1.904038e+06 1.904042e+06 3.334
8 regular 5 60 460 55 2.500000e+00 0.501 slower 1 1.904043e+06 1.904047e+06 3.515
8 regular 5 61 461 55 2.500000e+00 0.524 faster 0 1.904048e+06 1.904051e+06 3.154
8 regular 5 62 462 54 2.500000e+00 0.202 faster 0 1.904052e+06 1.904056e+06 3.270
8 regular 5 63 463 67 2.500000e+00 0.544 faster 1 1.904057e+06 1.904060e+06 3.278
8 regular 5 64 464 66 2.500000e+00 0.247 slower 0 1.904061e+06 1.904065e+06 3.551
8 regular 5 65 465 67 2.500000e+00 0.513 faster 1 1.904066e+06 1.904070e+06 3.250
8 regular 5 66 466 53 2.500000e+00 0.297 slower 1 1.904071e+06 1.904075e+06 3.452
8 regular 5 67 467 66 2.500000e+00 0.131 faster 1 1.904076e+06 1.904080e+06 3.500
8 regular 5 68 468 54 2.500000e+00 0.504 faster 0 1.904081e+06 1.904085e+06 3.148
8 regular 5 69 469 67 2.500000e+00 0.203 slower 0 1.904085e+06 1.904089e+06 3.364
8 regular 5 70 470 52 2.500000e+00 0.593 slower 1 1.904090e+06 1.904093e+06 3.407
8 regular 5 71 471 67 2.500000e+00 0.596 faster 1 1.904095e+06 1.904098e+06 3.271
8 regular 5 72 472 53 2.500000e+00 0.366 faster 0 1.904100e+06 1.904103e+06 3.174
8 regular 5 73 473 68 2.500000e+00 0.383 faster 1 1.904105e+06 1.904109e+06 4.912
8 regular 5 74 474 53 2.500000e+00 0.105 slower 1 1.904111e+06 1.904115e+06 3.560
8 regular 5 75 475 53 2.500000e+00 0.324 faster 0 1.904116e+06 1.904120e+06 3.475
8 regular 5 76 476 68 2.500000e+00 0.229 faster 1 1.904120e+06 1.904124e+06 3.901
8 regular 5 77 477 53 2.500000e+00 0.178 slower 1 1.904125e+06 1.904129e+06 3.691
8 regular 5 78 478 53 2.500000e+00 0.512 faster 0 1.904131e+06 1.904134e+06 3.109
8 regular 5 79 479 52 2.500000e+00 0.150 faster 0 1.904135e+06 1.904139e+06 3.450
8 regular 5 80 480 51 2.500000e+00 0.306 slower 1 1.904141e+06 1.904144e+06 3.247
8 regular 5 81 481 52 2.500000e+00 0.474 slower 1 1.904147e+06 1.904151e+06 3.559
8 regular 5 82 482 68 2.500000e+00 0.306 faster 1 1.904154e+06 1.904157e+06 3.292
8 regular 5 83 483 67 2.500000e+00 0.246 faster 1 1.904161e+06 1.904164e+06 3.262
8 regular 5 84 484 53 2.500000e+00 0.499 slower 1 1.904166e+06 1.904169e+06 3.285
8 regular 5 85 485 54 2.500000e+00 0.458 slower 1 1.904170e+06 1.904174e+06 3.376
8 regular 5 86 486 66 2.500000e+00 0.208 faster 1 1.904175e+06 1.904178e+06 3.165
8 regular 5 87 487 65 2.500000e+00 0.213 none 2 1.904179e+06 1.904184e+06 5.500
8 regular 5 88 488 65 2.500000e+00 0.551 faster 1 1.904191e+06 1.904195e+06 3.209
8 regular 5 89 489 55 2.500000e+00 0.453 slower 1 1.904197e+06 1.904200e+06 3.348
8 regular 5 90 490 64 2.500000e+00 0.264 faster 1 1.904201e+06 1.904205e+06 3.413
8 regular 5 91 491 56 2.500000e+00 0.216 slower 1 1.904205e+06 1.904210e+06 4.262
8 regular 5 92 492 63 2.500000e+00 0.276 faster 1 1.904211e+06 1.904214e+06 3.099
8 regular 5 93 493 63 2.500000e+00 0.367 slower 0 1.904216e+06 1.904219e+06 3.138
8 regular 5 94 494 56 2.500000e+00 0.293 slower 1 1.904220e+06 1.904224e+06 3.292
8 regular 5 95 495 63 2.500000e+00 0.398 faster 1 1.904225e+06 1.904228e+06 3.103
8 regular 5 96 496 57 2.500000e+00 0.424 faster 0 1.904229e+06 1.904232e+06 3.227
8 regular 5 97 497 56 2.500000e+00 0.496 slower 1 1.904234e+06 1.904237e+06 3.326
8 regular 5 98 498 63 2.500000e+00 0.265 slower 0 1.904238e+06 1.904241e+06 3.558
8 regular 5 99 499 56 2.500000e+00 0.484 faster 0 1.904243e+06 1.904246e+06 3.271
8 regular 5 100 500 65 2.500000e+00 0.377 slower 0 1.904247e+06 1.904251e+06 3.238
8 irregular 6 1 501 51 1.500000e+00 0.153 faster 0 2.071980e+06 2.071982e+06 2.585
8 irregular 6 2 502 71 2.500000e+00 0.199 faster 1 2.071984e+06 2.071987e+06 3.193
8 irregular 6 3 503 71 1.500000e+00 0.240 faster 1 2.071988e+06 2.071991e+06 2.174
8 irregular 6 4 504 69 2.500000e+00 0.146 faster 1 2.071992e+06 2.071995e+06 3.197
8 irregular 6 5 505 51 2 0.583 slower 1 2.071997e+06 2.071999e+06 2.647
8 irregular 6 6 506 53 1 0.529 slower 1 2.072001e+06 2.072004e+06 2.404
8 irregular 6 7 507 53 2 0.143 faster 0 2.072005e+06 2.072008e+06 2.735
8 irregular 6 8 508 51 1.500000e+00 0.355 slower 1 2.072009e+06 2.072011e+06 2.281
8 irregular 6 9 509 67 2 0.464 faster 1 2.072013e+06 2.072015e+06 2.592
8 irregular 6 10 510 53 1 0.147 slower 1 2.072016e+06 2.072018e+06 1.935
8 irregular 6 11 511 54 1 0.580 slower 1 2.072020e+06 2.072022e+06 2.296
8 irregular 6 12 512 54 1 0.475 faster 0 2.072023e+06 2.072025e+06 1.738
8 irregular 6 13 513 53 2 0.504 faster 0 2.072026e+06 2.072029e+06 2.648
8 irregular 6 14 514 52 1 0.275 faster 0 2.072030e+06 2.072032e+06 1.735
8 irregular 6 15 515 51 2.500000e+00 0.323 slower 1 2.072033e+06 2.072037e+06 3.635
8 irregular 6 16 516 68 3 0.271 faster 1 2.072038e+06 2.072042e+06 3.736
8 irregular 6 17 517 52 3 0.426 faster 0 2.072044e+06 2.072047e+06 3.622
8 irregular 6 18 518 51 1.500000e+00 0.522 faster 0 2.072048e+06 2.072051e+06 2.379
8 irregular 6 19 519 70 1 0.377 faster 1 2.072052e+06 2.072054e+06 1.657
8 irregular 6 20 520 69 2 0.274 faster 1 2.072055e+06 2.072058e+06 2.739
8 irregular 6 21 521 51 3 0.251 faster 0 2.072059e+06 2.072063e+06 3.812
8 irregular 6 22 522 70 3 0.400 faster 1 2.072064e+06 2.072068e+06 3.642
8 irregular 6 23 523 51 1.500000e+00 0.339 slower 1 2.072070e+06 2.072072e+06 2.259
8 irregular 6 24 524 51 1.500000e+00 0.511 slower 1 2.072073e+06 2.072075e+06 2.219
8 irregular 6 25 525 68 2.500000e+00 0.581 faster 1 2.072077e+06 2.072080e+06 3.192
8 irregular 6 26 526 52 2 0.524 slower 1 2.072082e+06 2.072086e+06 3.429
8 irregular 6 27 527 53 3 0.168 slower 1 2.072087e+06 2.072091e+06 3.787
8 irregular 6 28 528 53 1 0.146 faster 0 2.072092e+06 2.072095e+06 2.158
8 irregular 6 29 529 52 1 0.434 slower 1 2.072096e+06 2.072098e+06 2.019
8 irregular 6 30 530 67 3 0.267 faster 1 2.072099e+06 2.072103e+06 3.644
8 irregular 6 31 531 53 2.500000e+00 0.217 faster 0 2.072104e+06 2.072108e+06 3.218
8 irregular 6 32 532 52 3 0.198 faster 0 2.072109e+06 2.072113e+06 4.022
8 irregular 6 33 533 69 1 0.575 faster 1 2.072114e+06 2.072116e+06 2.064
8 irregular 6 34 534 68 1.500000e+00 0.207 faster 1 2.072117e+06 2.072120e+06 2.331
8 irregular 6 35 535 52 1.500000e+00 0.106 faster 0 2.072121e+06 2.072123e+06 2.332
8 irregular 6 36 536 69 3 0.146 faster 1 2.072125e+06 2.072129e+06 4.523
8 irregular 6 37 537 52 3 0.584 slower 1 2.072131e+06 2.072135e+06 3.696
8 irregular 6 38 538 52 2.500000e+00 0.316 slower 1 2.072138e+06 2.072141e+06 3.283
8 irregular 6 39 539 53 2.500000e+00 0.391 faster 0 2.072143e+06 2.072147e+06 3.790
8 irregular 6 40 540 52 1.500000e+00 0.119 slower 1 2.072148e+06 2.072150e+06 2.252
8 irregular 6 41 541 52 2.500000e+00 0.596 faster 0 2.072152e+06 2.072156e+06 3.755
8 irregular 6 42 542 69 2.500000e+00 0.441 faster 1 2.072157e+06 2.072160e+06 3.211
8 irregular 6 43 543 52 1 0.161 slower 1 2.072162e+06 2.072164e+06 1.809
8 irregular 6 44 544 68 2 0.515 faster 1 2.072165e+06 2.072168e+06 2.700
8 irregular 6 45 545 53 3 0.300 faster 0 2.072169e+06 2.072174e+06 4.652
8 irregular 6 46 546 68 1 0.595 slower 0 2.072176e+06 2.072178e+06 2.255
8 irregular 6 47 547 69 1.500000e+00 0.566 faster 1 2.072180e+06 2.072182e+06 2.389
8 irregular 6 48 548 69 1 0.344 faster 1 2.072184e+06 2.072186e+06 2.190
8 irregular 6 49 549 52 2 0.585 slower 1 2.072188e+06 2.072190e+06 2.781
8 irregular 6 50 550 68 3 0.267 none 2 2.072192e+06 2.072198e+06 5.999
8 irregular 6 51 551 68 2 0.241 faster 1 2.072199e+06 2.072202e+06 3.253
8 irregular 6 52 552 67 2 0.505 faster 1 2.072204e+06 2.072207e+06 2.663
8 irregular 6 53 553 67 2.500000e+00 0.219 faster 1 2.072208e+06 2.072212e+06 3.761
8 irregular 6 54 554 66 1 0.297 slower 0 2.072213e+06 2.072215e+06 1.664
8 irregular 6 55 555 67 3 0.139 faster 1 2.072217e+06 2.072221e+06 3.887
8 irregular 6 56 556 67 1.500000e+00 0.186 faster 1 2.072222e+06 2.072224e+06 2.147
8 irregular 6 57 557 66 1.500000e+00 0.118 slower 0 2.072226e+06 2.072228e+06 2.199
8 irregular 6 58 558 67 3 0.326 faster 1 2.072229e+06 2.072233e+06 4.011
8 irregular 6 59 559 67 1 0.336 slower 0 2.072235e+06 2.072236e+06 1.717
8 irregular 6 60 560 68 2.500000e+00 0.124 faster 1 2.072238e+06 2.072241e+06 3.275
8 irregular 6 61 561 67 2 0.161 faster 1 2.072242e+06 2.072245e+06 2.843
8 irregular 6 62 562 67 2 0.287 faster 1 2.072246e+06 2.072248e+06 2.963
8 irregular 6 63 563 66 2.500000e+00 0.584 faster 1 2.072250e+06 2.072253e+06 3.527
8 irregular 6 64 564 54 2.500000e+00 0.401 faster 0 2.072255e+06 2.072258e+06 3.495
8 irregular 6 65 565 67 2 0.484 faster 1 2.072260e+06 2.072263e+06 2.741
8 irregular 6 66 566 54 2.500000e+00 0.161 slower 1 2.072264e+06 2.072267e+06 3.270
8 irregular 6 67 567 66 1 0.131 faster 1 2.072270e+06 2.072272e+06 1.878
8 irregular 6 68 568 55 2 0.580 faster 0 2.072273e+06 2.072275e+06 2.719
8 irregular 6 69 569 66 1 0.381 slower 0 2.072277e+06 2.072278e+06 1.864
8 irregular 6 70 570 53 3 0.311 faster 0 2.072279e+06 2.072284e+06 4.976
8 irregular 6 71 571 68 2.500000e+00 0.146 faster 1 2.072286e+06 2.072289e+06 3.254
8 irregular 6 72 572 52 2 0.525 faster 0 2.072290e+06 2.072293e+06 2.883
8 irregular 6 73 573 69 2.500000e+00 0.239 faster 1 2.072294e+06 2.072297e+06 3.177
8 irregular 6 74 574 68 1.500000e+00 0.576 faster 1 2.072300e+06 2.072303e+06 2.402
8 irregular 6 75 575 52 2.500000e+00 0.117 faster 0 2.072303e+06 2.072307e+06 3.381
8 irregular 6 76 576 69 1 0.533 faster 1 2.072308e+06 2.072310e+06 1.813
8 irregular 6 77 577 68 1.500000e+00 0.517 faster 1 2.072311e+06 2.072314e+06 2.192
8 irregular 6 78 578 52 2 0.263 faster 0 2.072315e+06 2.072318e+06 3.305
8 irregular 6 79 579 51 3 0.209 faster 0 2.072320e+06 2.072323e+06 3.852
8 irregular 6 80 580 50 1.500000e+00 0.526 slower 1 2.072325e+06 2.072327e+06 2.400
8 irregular 6 81 581 69 2.500000e+00 0.318 faster 1 2.072328e+06 2.072332e+06 3.253
8 irregular 6 82 582 69 1 0.217 none 2 2.072332e+06 2.072336e+06 3.999
8 irregular 6 83 583 51 3 0.389 slower 1 2.072338e+06 2.072341e+06 3.738
8 irregular 6 84 584 52 1.500000e+00 0.292 slower 1 2.072343e+06 2.072347e+06 3.829
8 irregular 6 85 585 68 3 0.600 slower 0 2.072348e+06 2.072352e+06 3.747
8 irregular 6 86 586 69 3 0.227 faster 1 2.072353e+06 2.072357e+06 3.643
8 irregular 6 87 587 52 2 0.439 faster 0 2.072359e+06 2.072362e+06 3.463
8 irregular 6 88 588 69 1.500000e+00 0.358 slower 0 2.072365e+06 2.072368e+06 3.073
8 irregular 6 89 589 50 1 0.573 slower 1 2.072370e+06 2.072372e+06 1.891
8 irregular 6 90 590 50 1.500000e+00 0.202 slower 1 2.072373e+06 2.072375e+06 2.186
8 irregular 6 91 591 69 2 0.450 faster 1 2.072377e+06 2.072380e+06 3.130
8 irregular 6 92 592 69 1.500000e+00 0.326 faster 1 2.072382e+06 2.072385e+06 3.447
8 irregular 6 93 593 52 2.500000e+00 0.368 slower 1 2.072387e+06 2.072390e+06 3.332
8 irregular 6 94 594 52 2.500000e+00 0.258 faster 0 2.072392e+06 2.072396e+06 3.768
8 irregular 6 95 595 69 1.500000e+00 0.204 faster 1 2.072397e+06 2.072400e+06 3.344
8 irregular 6 96 596 52 2 0.209 faster 0 2.072402e+06 2.072405e+06 3.325
8 irregular 6 97 597 51 1 0.471 faster 0 2.072406e+06 2.072409e+06 2.530
8 irregular 6 98 598 70 3 0.150 faster 1 2.072410e+06 2.072414e+06 3.678
8 irregular 6 99 599 70 2 0.262 faster 1 2.072415e+06 2.072418e+06 3.049
8 irregular 6 100 600 51 3 0.321 slower 1 2.072419e+06 2.072423e+06 3.743
8 regular 7 1 601 51 1.500000e+00 0.271 faster 0 2.072454e+06 2.072457e+06 3.836
8 regular 7 2 602 70 1.500000e+00 0.442 faster 1 2.072459e+06 2.072461e+06 2.186
8 regular 7 3 603 51 1.500000e+00 0.413 faster 0 2.072463e+06 2.072465e+06 2.226
8 regular 7 4 604 70 1.500000e+00 0.474 faster 1 2.072467e+06 2.072469e+06 2.062
8 regular 7 5 605 50 1.500000e+00 0.553 slower 1 2.072470e+06 2.072473e+06 2.429
8 regular 7 6 606 69 1.500000e+00 0.586 faster 1 2.072475e+06 2.072477e+06 2.184
8 regular 7 7 607 69 1.500000e+00 0.373 faster 1 2.072479e+06 2.072481e+06 2.135
8 regular 7 8 608 52 1.500000e+00 0.384 faster 0 2.072482e+06 2.072484e+06 2.137
8 regular 7 9 609 69 1.500000e+00 0.139 faster 1 2.072485e+06 2.072488e+06 2.124
8 regular 7 10 610 69 1.500000e+00 0.373 faster 1 2.072489e+06 2.072491e+06 2.145
8 regular 7 11 611 52 1.500000e+00 0.568 faster 0 2.072492e+06 2.072494e+06 2.249
8 regular 7 12 612 51 1.500000e+00 0.338 faster 0 2.072496e+06 2.072498e+06 2.119
8 regular 7 13 613 70 1.500000e+00 0.245 faster 1 2.072499e+06 2.072501e+06 2.241
8 regular 7 14 614 70 1.500000e+00 0.143 faster 1 2.072503e+06 2.072505e+06 2.101
8 regular 7 15 615 51 1.500000e+00 0.477 faster 0 2.072506e+06 2.072509e+06 2.252
8 regular 7 16 616 50 1.500000e+00 0.268 faster 0 2.072510e+06 2.072512e+06 2.167
8 regular 7 17 617 49 1.500000e+00 0.436 faster 0 2.072513e+06 2.072516e+06 2.198
8 regular 7 18 618 48 1.500000e+00 0.272 faster 0 2.072517e+06 2.072520e+06 2.619
8 regular 7 19 619 73 1.500000e+00 0.172 faster 1 2.072522e+06 2.072524e+06 2.182
8 regular 7 20 620 47 1.500000e+00 0.251 slower 1 2.072525e+06 2.072527e+06 2.123
8 regular 7 21 621 72 1.500000e+00 0.108 faster 1 2.072529e+06 2.072531e+06 2.215
8 regular 7 22 622 48 1.500000e+00 0.335 faster 0 2.072532e+06 2.072535e+06 2.617
8 regular 7 23 623 73 1.500000e+00 0.296 faster 1 2.072536e+06 2.072539e+06 2.245
8 regular 7 24 624 72 1.500000e+00 0.402 faster 1 2.072540e+06 2.072542e+06 2.213
8 regular 7 25 625 48 1.500000e+00 0.363 faster 0 2.072544e+06 2.072546e+06 2.364
8 regular 7 26 626 47 1.500000e+00 0.302 slower 1 2.072548e+06 2.072550e+06 2.316
8 regular 7 27 627 48 1.500000e+00 0.119 slower 1 2.072551e+06 2.072553e+06 2.121
8 regular 7 28 628 48 1.500000e+00 0.156 slower 1 2.072555e+06 2.072558e+06 3.627
8 regular 7 29 629 71 1.500000e+00 0.292 faster 1 2.072560e+06 2.072562e+06 2.147
8 regular 7 30 630 71 1.500000e+00 0.274 faster 1 2.072563e+06 2.072566e+06 2.261
8 regular 7 31 631 70 1.500000e+00 0.496 faster 1 2.072568e+06 2.072570e+06 2.064
8 regular 7 32 632 50 1.500000e+00 0.321 faster 0 2.072573e+06 2.072575e+06 2.131
8 regular 7 33 633 71 1.500000e+00 0.246 faster 1 2.072576e+06 2.072578e+06 2.070
8 regular 7 34 634 50 1.500000e+00 0.512 faster 0 2.072579e+06 2.072584e+06 4.269
8 regular 7 35 635 71 1.500000e+00 0.448 faster 1 2.072585e+06 2.072588e+06 2.153
8 regular 7 36 636 71 1.500000e+00 0.126 faster 1 2.072588e+06 2.072591e+06 2.504
8 regular 7 37 637 50 1.500000e+00 0.533 slower 1 2.072592e+06 2.072594e+06 2.463
8 regular 7 38 638 50 1.500000e+00 0.466 faster 0 2.072596e+06 2.072598e+06 2.129
8 regular 7 39 639 71 1.500000e+00 0.480 slower 0 2.072599e+06 2.072601e+06 2.131
8 regular 7 40 640 48 1.500000e+00 0.369 faster 0 2.072603e+06 2.072605e+06 2.339
8 regular 7 41 641 47 1.500000e+00 0.426 slower 1 2.072606e+06 2.072609e+06 2.483
8 regular 7 42 642 72 1.500000e+00 0.496 faster 1 2.072610e+06 2.072613e+06 2.471
8 regular 7 43 643 48 1.500000e+00 0.562 slower 1 2.072615e+06 2.072619e+06 3.454
8 regular 7 44 644 49 1.500000e+00 0.553 faster 0 2.072620e+06 2.072623e+06 2.659
8 regular 7 45 645 48 1.500000e+00 0.514 faster 0 2.072625e+06 2.072627e+06 2.510
8 regular 7 46 646 73 1.500000e+00 0.589 faster 1 2.072629e+06 2.072631e+06 2.070
8 regular 7 47 647 73 1.500000e+00 0.447 faster 1 2.072633e+06 2.072635e+06 2.143
8 regular 7 48 648 48 1.500000e+00 0.582 faster 0 2.072637e+06 2.072639e+06 2.268
8 regular 7 49 649 47 1.500000e+00 0.459 faster 0 2.072641e+06 2.072643e+06 2.198
8 regular 7 50 650 46 1.500000e+00 0.501 faster 0 2.072646e+06 2.072648e+06 2.233
8 regular 7 51 651 75 1.500000e+00 0.416 faster 1 2.072650e+06 2.072652e+06 2.188
8 regular 7 52 652 45 1.500000e+00 0.273 faster 0 2.072655e+06 2.072658e+06 3.417
8 regular 7 53 653 76 1.500000e+00 0.346 faster 1 2.072660e+06 2.072663e+06 3.309
8 regular 7 54 654 45 1.500000e+00 0.180 slower 1 2.072664e+06 2.072666e+06 2.145
8 regular 7 55 655 75 1.500000e+00 0.329 faster 1 2.072668e+06 2.072671e+06 2.255
8 regular 7 56 656 46 1.500000e+00 0.187 slower 1 2.072672e+06 2.072674e+06 2.127
8 regular 7 57 657 74 1.500000e+00 0.287 faster 1 2.072676e+06 2.072678e+06 2.045
8 regular 7 58 658 73 1.500000e+00 0.293 faster 1 2.072679e+06 2.072681e+06 2.086
8 regular 7 59 659 73 1.500000e+00 0.406 faster 1 2.072682e+06 2.072684e+06 2.130
8 regular 7 60 660 48 1.500000e+00 0.102 slower 1 2.072685e+06 2.072687e+06 2.180
8 regular 7 61 661 72 1.500000e+00 0.382 faster 1 2.072689e+06 2.072691e+06 2.035
8 regular 7 62 662 71 1.500000e+00 0.276 faster 1 2.072692e+06 2.072694e+06 2.039
8 regular 7 63 663 71 1.500000e+00 0.446 faster 1 2.072697e+06 2.072699e+06 2.104
8 regular 7 64 664 50 1.500000e+00 0.235 faster 0 2.072704e+06 2.072706e+06 2.255
8 regular 7 65 665 71 1.500000e+00 0.238 faster 1 2.072707e+06 2.072710e+06 2.743
8 regular 7 66 666 49 1.500000e+00 0.383 slower 1 2.072712e+06 2.072714e+06 2.449
8 regular 7 67 667 50 1.500000e+00 0.521 faster 0 2.072715e+06 2.072717e+06 2.192
8 regular 7 68 668 49 1.500000e+00 0.487 slower 1 2.072719e+06 2.072721e+06 2.324
8 regular 7 69 669 71 1.500000e+00 0.364 faster 1 2.072722e+06 2.072724e+06 2.177
8 regular 7 70 670 70 1.500000e+00 0.498 slower 0 2.072726e+06 2.072728e+06 2.279
8 regular 7 71 671 71 1.500000e+00 0.521 faster 1 2.072730e+06 2.072732e+06 2.063
8 regular 7 72 672 71 1.500000e+00 0.598 faster 1 2.072734e+06 2.072737e+06 2.542
8 regular 7 73 673 50 1.500000e+00 0.368 faster 0 2.072738e+06 2.072741e+06 2.950
8 regular 7 74 674 49 1.500000e+00 0.418 faster 0 2.072743e+06 2.072745e+06 2.267
8 regular 7 75 675 72 1.500000e+00 0.541 faster 1 2.072747e+06 2.072749e+06 2.256
8 regular 7 76 676 48 1.500000e+00 0.118 slower 1 2.072750e+06 2.072752e+06 2.295
8 regular 7 77 677 49 1.500000e+00 0.438 faster 0 2.072754e+06 2.072756e+06 2.422
8 regular 7 78 678 48 1.500000e+00 0.129 slower 1 2.072757e+06 2.072759e+06 2.221
8 regular 7 79 679 72 1.500000e+00 0.143 faster 1 2.072760e+06 2.072763e+06 2.163
8 regular 7 80 680 49 1.500000e+00 0.177 faster 0 2.072764e+06 2.072767e+06 2.426
8 regular 7 81 681 48 1.500000e+00 0.495 slower 1 2.072771e+06 2.072773e+06 2.200
8 regular 7 82 682 48 1.500000e+00 0.575 faster 0 2.072775e+06 2.072777e+06 2.380
8 regular 7 83 683 73 1.500000e+00 0.349 faster 1 2.072778e+06 2.072781e+06 2.173
8 regular 7 84 684 72 1.500000e+00 0.230 faster 1 2.072783e+06 2.072785e+06 2.177
8 regular 7 85 685 72 1.500000e+00 0.596 faster 1 2.072787e+06 2.072789e+06 2.078
8 regular 7 86 686 71 1.500000e+00 0.102 faster 1 2.072790e+06 2.072792e+06 2.136
8 regular 7 87 687 49 1.500000e+00 0.340 slower 1 2.072793e+06 2.072795e+06 2.108
8 regular 7 88 688 50 1.500000e+00 0.436 faster 0 2.072798e+06 2.072800e+06 2.542
8 regular 7 89 689 49 1.500000e+00 0.296 faster 0 2.072802e+06 2.072804e+06 2.109
8 regular 7 90 690 72 1.500000e+00 0.210 faster 1 2.072806e+06 2.072808e+06 2.070
8 regular 7 91 691 72 1.500000e+00 0.418 faster 1 2.072810e+06 2.072813e+06 2.831
8 regular 7 92 692 71 1.500000e+00 0.430 none 2 2.072814e+06 2.072819e+06 4.500
8 regular 7 93 693 71 1.500000e+00 0.408 faster 1 2.072821e+06 2.072823e+06 2.104
8 regular 7 94 694 49 1.500000e+00 0.132 slower 1 2.072826e+06 2.072828e+06 2.170
8 regular 7 95 695 50 1.500000e+00 0.496 faster 0 2.072830e+06 2.072832e+06 2.189
8 regular 7 96 696 49 1.500000e+00 0.389 faster 0 2.072833e+06 2.072835e+06 2.163
8 regular 7 97 697 72 1.500000e+00 0.168 none 2 2.072836e+06 2.072841e+06 4.499
8 regular 7 98 698 72 1.500000e+00 0.597 faster 1 2.072842e+06 2.072844e+06 2.202
8 regular 7 99 699 72 1.500000e+00 0.190 faster 1 2.072845e+06 2.072847e+06 2.265
8 regular 7 100 700 71 1.500000e+00 0.524 faster 1 2.072848e+06 2.072850e+06 2.209
8 irregular 8 1 701 71 1.500000e+00 0.485 none 2 2.072876e+06 2.072881e+06 4.499
8 irregular 8 2 702 71 2 0.248 faster 1 2.072881e+06 2.072884e+06 2.949
8 irregular 8 3 703 50 2 0.220 faster 0 2.072886e+06 2.072888e+06 2.697
8 irregular 8 4 704 71 2.500000e+00 0.113 faster 1 2.072890e+06 2.072893e+06 3.306
8 irregular 8 5 705 49 1.500000e+00 0.123 none 2 2.072894e+06 2.072898e+06 4.500
8 irregular 8 6 706 49 3 0.501 slower 1 2.072900e+06 2.072903e+06 3.651
8 irregular 8 7 707 50 2 0.217 slower 1 2.072905e+06 2.072907e+06 2.859
8 irregular 8 8 708 70 2.500000e+00 0.238 faster 1 2.072909e+06 2.072912e+06 3.116
8 irregular 8 9 709 69 2 0.378 faster 1 2.072919e+06 2.072922e+06 2.791
8 irregular 8 10 710 69 2.500000e+00 0.130 faster 1 2.072924e+06 2.072927e+06 3.182
8 irregular 8 11 711 68 3 0.196 faster 1 2.072928e+06 2.072932e+06 3.744
8 irregular 8 12 712 68 2.500000e+00 0.519 faster 1 2.072933e+06 2.072936e+06 3.111
8 irregular 8 13 713 67 2 0.346 faster 1 2.072937e+06 2.072940e+06 2.669
8 irregular 8 14 714 53 3 0.579 slower 1 2.072941e+06 2.072945e+06 3.961
8 irregular 8 15 715 54 1 0.111 slower 1 2.072946e+06 2.072948e+06 2.117
8 irregular 8 16 716 66 3 0.584 slower 0 2.072950e+06 2.072954e+06 3.796
8 irregular 8 17 717 53 2 0.379 none 2 2.072955e+06 2.072960e+06 4.999
8 irregular 8 18 718 53 3 0.123 slower 1 2.072961e+06 2.072965e+06 3.722
8 irregular 8 19 719 54 2.500000e+00 0.397 none 2 2.072966e+06 2.072972e+06 5.500
8 irregular 8 20 720 66 1 0.527 faster 1 2.072973e+06 2.072975e+06 2.160
8 irregular 8 21 721 66 2 0.179 faster 1 2.072977e+06 2.072979e+06 2.704
8 irregular 8 22 722 55 3 0.335 faster 0 2.072981e+06 2.072985e+06 4.637
8 irregular 8 23 723 54 2 0.274 slower 1 2.072987e+06 2.072990e+06 2.667
8 irregular 8 24 724 66 1 0.231 none 2 2.072992e+06 2.072996e+06 4.000
8 irregular 8 25 725 66 2.500000e+00 0.420 faster 1 2.072997e+06 2.073001e+06 3.780
8 irregular 8 26 726 55 1 0.341 faster 0 2.073003e+06 2.073005e+06 2.284
8 irregular 8 27 727 54 1 0.507 slower 1 2.073007e+06 2.073009e+06 1.944
8 irregular 8 28 728 54 3 0.148 faster 0 2.073010e+06 2.073014e+06 3.868
8 irregular 8 29 729 53 3 0.258 slower 1 2.073017e+06 2.073022e+06 4.419
8 irregular 8 30 730 54 2 0.107 faster 0 2.073024e+06 2.073028e+06 3.661
8 irregular 8 31 731 53 1 0.276 slower 1 2.073030e+06 2.073032e+06 1.843
8 irregular 8 32 732 53 1.500000e+00 0.136 faster 0 2.073033e+06 2.073037e+06 3.508
8 irregular 8 33 733 52 2.500000e+00 0.450 slower 1 2.073040e+06 2.073044e+06 3.456
8 irregular 8 34 734 67 3 0.290 faster 1 2.073045e+06 2.073049e+06 3.737
8 irregular 8 35 735 67 3 0.111 faster 1 2.073050e+06 2.073054e+06 3.591
8 irregular 8 36 736 66 2 0.532 none 2 2.073056e+06 2.073061e+06 4.999
8 irregular 8 37 737 66 3 0.303 faster 1 2.073062e+06 2.073066e+06 4.073
8 irregular 8 38 738 66 1.500000e+00 0.393 slower 0 2.073067e+06 2.073070e+06 2.528
8 irregular 8 39 739 67 2 0.117 faster 1 2.073071e+06 2.073074e+06 2.760
8 irregular 8 40 740 54 2 0.167 slower 1 2.073075e+06 2.073077e+06 2.818
8 irregular 8 41 741 66 2 0.435 slower 0 2.073079e+06 2.073082e+06 3.044
8 irregular 8 42 742 67 1 0.429 faster 1 2.073083e+06 2.073085e+06 1.918
8 irregular 8 43 743 54 2.500000e+00 0.261 slower 1 2.073086e+06 2.073090e+06 3.477
8 irregular 8 44 744 54 1.500000e+00 0.278 faster 0 2.073091e+06 2.073094e+06 2.216
8 irregular 8 45 745 53 1.500000e+00 0.185 slower 1 2.073094e+06 2.073097e+06 2.537
8 irregular 8 46 746 54 1 0.270 faster 0 2.073098e+06 2.073100e+06 1.764
8 irregular 8 47 747 53 1.500000e+00 0.309 slower 1 2.073102e+06 2.073104e+06 2.404
8 irregular 8 48 748 67 1.500000e+00 0.470 faster 1 2.073106e+06 2.073108e+06 2.226
8 irregular 8 49 749 66 1 0.129 faster 1 2.073109e+06 2.073111e+06 1.701
8 irregular 8 50 750 54 1 0.111 slower 1 2.073112e+06 2.073114e+06 1.781
8 irregular 8 51 751 65 2.500000e+00 0.379 none 2 2.073115e+06 2.073121e+06 5.499
8 irregular 8 52 752 65 1 0.547 slower 0 2.073122e+06 2.073124e+06 2.273
8 irregular 8 53 753 66 3 0.451 faster 1 2.073126e+06 2.073130e+06 3.954
8 irregular 8 54 754 66 3 0.175 faster 1 2.073133e+06 2.073137e+06 3.940
8 irregular 8 55 755 55 3 0.497 slower 1 2.073138e+06 2.073142e+06 3.810
8 irregular 8 56 756 55 2.500000e+00 0.141 slower 1 2.073143e+06 2.073147e+06 3.269
8 irregular 8 57 757 56 2 0.429 slower 1 2.073148e+06 2.073151e+06 2.764
8 irregular 8 58 758 56 2 0.147 slower 1 2.073154e+06 2.073157e+06 2.894
8 irregular 8 59 759 63 2.500000e+00 0.364 slower 0 2.073158e+06 2.073161e+06 3.225
8 irregular 8 60 760 64 3 0.241 faster 1 2.073163e+06 2.073167e+06 3.813
8 irregular 8 61 761 64 1.500000e+00 0.190 slower 0 2.073168e+06 2.073171e+06 2.703
8 irregular 8 62 762 55 2.500000e+00 0.575 slower 1 2.073173e+06 2.073176e+06 3.358
8 irregular 8 63 763 56 2.500000e+00 0.113 slower 1 2.073178e+06 2.073181e+06 3.190
8 irregular 8 64 764 64 1 0.204 slower 0 2.073182e+06 2.073184e+06 1.893
8 irregular 8 65 765 65 1.500000e+00 0.286 slower 0 2.073185e+06 2.073187e+06 2.155
8 irregular 8 66 766 66 1.500000e+00 0.210 slower 0 2.073189e+06 2.073191e+06 2.263
8 irregular 8 67 767 53 1.500000e+00 0.495 slower 1 2.073193e+06 2.073196e+06 2.382
8 irregular 8 68 768 66 3 0.228 faster 1 2.073197e+06 2.073201e+06 4.345
8 irregular 8 69 769 66 2 0.512 faster 1 2.073204e+06 2.073206e+06 2.728
8 irregular 8 70 770 65 1 0.260 slower 0 2.073208e+06 2.073210e+06 1.809
8 irregular 8 71 771 54 2 0.393 faster 0 2.073211e+06 2.073215e+06 3.585
8 irregular 8 72 772 53 2.500000e+00 0.547 faster 0 2.073217e+06 2.073221e+06 3.293
8 irregular 8 73 773 52 2.500000e+00 0.504 faster 0 2.073222e+06 2.073227e+06 4.158
8 irregular 8 74 774 51 1 0.389 slower 1 2.073230e+06 2.073232e+06 2.471
8 irregular 8 75 775 69 1 0.500 faster 1 2.073235e+06 2.073237e+06 1.847
8 irregular 8 76 776 52 3 0.463 slower 1 2.073240e+06 2.073244e+06 3.988
8 irregular 8 77 777 68 1.500000e+00 0.581 faster 1 2.073247e+06 2.073250e+06 3.173
8 irregular 8 78 778 53 1.500000e+00 0.593 faster 0 2.073252e+06 2.073254e+06 2.344
8 irregular 8 79 779 68 1 0.318 faster 1 2.073256e+06 2.073257e+06 1.690
8 irregular 8 80 780 68 3 0.233 faster 1 2.073259e+06 2.073262e+06 3.652
8 irregular 8 81 781 53 1.500000e+00 0.324 faster 0 2.073264e+06 2.073266e+06 2.212
8 irregular 8 82 782 52 1 0.545 slower 1 2.073267e+06 2.073270e+06 2.892
8 irregular 8 83 783 68 2.500000e+00 0.228 faster 1 2.073272e+06 2.073275e+06 3.234
8 irregular 8 84 784 53 1 0.211 slower 1 2.073277e+06 2.073279e+06 1.871
8 irregular 8 85 785 53 3 0.279 slower 1 2.073281e+06 2.073284e+06 3.709
8 irregular 8 86 786 66 1 0.142 faster 1 2.073286e+06 2.073288e+06 1.736
8 irregular 8 87 787 66 1.500000e+00 0.528 faster 1 2.073289e+06 2.073292e+06 2.262
8 irregular 8 88 788 55 1 0.413 faster 0 2.073293e+06 2.073295e+06 2.607
8 irregular 8 89 789 54 1.500000e+00 0.517 faster 0 2.073297e+06 2.073300e+06 2.566
8 irregular 8 90 790 67 2.500000e+00 0.404 faster 1 2.073301e+06 2.073304e+06 3.217
8 irregular 8 91 791 67 1.500000e+00 0.325 faster 1 2.073306e+06 2.073308e+06 2.267
8 irregular 8 92 792 54 2 0.346 faster 0 2.073309e+06 2.073312e+06 2.694
8 irregular 8 93 793 53 3 0.397 faster 0 2.073313e+06 2.073317e+06 3.890
8 irregular 8 94 794 52 1.500000e+00 0.344 slower 1 2.073318e+06 2.073321e+06 2.554
8 irregular 8 95 795 52 2.500000e+00 0.138 faster 0 2.073322e+06 2.073326e+06 3.308
8 irregular 8 96 796 69 2 0.449 faster 1 2.073327e+06 2.073330e+06 2.602
8 irregular 8 97 797 68 2 0.111 faster 1 2.073331e+06 2.073334e+06 3.027
8 irregular 8 98 798 68 1.500000e+00 0.288 faster 1 2.073337e+06 2.073339e+06 2.103
8 irregular 8 99 799 67 2.500000e+00 0.325 faster 1 2.073340e+06 2.073344e+06 3.222
8 irregular 8 100 800 53 2.500000e+00 0.584 slower 1 2.073345e+06 2.073349e+06 3.355
8 regular 9 1 801 66 1 0.354 faster 1 2.073410e+06 2.073412e+06 2.102
8 regular 9 2 802 54 1 0.192 faster 0 2.073414e+06 2.073415e+06 1.803
8 regular 9 3 803 67 1 0.481 faster 1 2.073417e+06 2.073418e+06 1.544
8 regular 9 4 804 54 1 0.425 faster 0 2.073420e+06 2.073422e+06 1.547
8 regular 9 5 805 67 1 0.204 faster 1 2.073423e+06 2.073425e+06 1.572
8 regular 9 6 806 67 1 0.123 faster 1 2.073426e+06 2.073427e+06 1.555
8 regular 9 7 807 66 1 0.218 faster 1 2.073428e+06 2.073429e+06 1.513
8 regular 9 8 808 66 1 0.545 faster 1 2.073431e+06 2.073433e+06 1.512
8 regular 9 9 809 55 1 0.389 faster 0 2.073434e+06 2.073436e+06 1.522
8 regular 9 10 810 66 1 0.312 faster 1 2.073437e+06 2.073439e+06 1.570
8 regular 9 11 811 54 1 0.493 faster 0 2.073441e+06 2.073442e+06 1.540
8 regular 9 12 812 67 1 0.266 faster 1 2.073444e+06 2.073446e+06 1.573
8 regular 9 13 813 54 1 0.136 faster 0 2.073447e+06 2.073449e+06 1.803
8 regular 9 14 814 53 1 0.582 faster 0 2.073451e+06 2.073453e+06 1.639
8 regular 9 15 815 52 1 0.236 faster 0 2.073455e+06 2.073456e+06 1.538
8 regular 9 16 816 69 1 0.364 faster 1 2.073458e+06 2.073460e+06 1.612
8 regular 9 17 817 69 1 0.142 faster 1 2.073461e+06 2.073463e+06 1.489
8 regular 9 18 818 52 1 0.288 faster 0 2.073464e+06 2.073465e+06 1.629
8 regular 9 19 819 69 1 0.239 faster 1 2.073469e+06 2.073470e+06 1.637
8 regular 9 20 820 69 1 0.244 faster 1 2.073472e+06 2.073473e+06 1.601
8 regular 9 21 821 52 1 0.251 faster 0 2.073474e+06 2.073476e+06 1.652
8 regular 9 22 822 51 1 0.105 faster 0 2.073477e+06 2.073479e+06 1.600
8 regular 9 23 823 50 1 0.396 faster 0 2.073480e+06 2.073482e+06 2.045
8 regular 9 24 824 71 1 0.486 faster 1 2.073484e+06 2.073485e+06 1.640
8 regular 9 25 825 49 1 0.290 slower 1 2.073487e+06 2.073489e+06 2.585
8 regular 9 26 826 70 1 0.201 faster 1 2.073491e+06 2.073492e+06 1.578
8 regular 9 27 827 70 1 0.327 faster 1 2.073494e+06 2.073495e+06 1.779
8 regular 9 28 828 69 1 0.314 faster 1 2.073497e+06 2.073499e+06 2.243
8 regular 9 29 829 51 1 0.367 faster 0 2.073501e+06 2.073503e+06 2.436
8 regular 9 30 830 50 1 0.314 slower 1 2.073505e+06 2.073507e+06 1.814
8 regular 9 31 831 69 1 0.113 faster 1 2.073508e+06 2.073510e+06 1.692
8 regular 9 32 832 69 1 0.155 faster 1 2.073511e+06 2.073512e+06 1.597
8 regular 9 33 833 52 1 0.226 faster 0 2.073515e+06 2.073517e+06 2.167
8 regular 9 34 834 69 1 0.113 faster 1 2.073518e+06 2.073520e+06 1.811
8 regular 9 35 835 69 1 0.150 faster 1 2.073521e+06 2.073523e+06 2.113
8 regular 9 36 836 52 1 0.257 faster 0 2.073525e+06 2.073527e+06 2.228
8 regular 9 37 837 51 1 0.580 faster 0 2.073531e+06 2.073533e+06 1.808
8 regular 9 38 838 70 1 0.368 slower 0 2.073535e+06 2.073537e+06 1.752
8 regular 9 39 839 49 1 0.401 slower 1 2.073538e+06 2.073541e+06 3.251
8 regular 9 40 840 71 1 0.425 faster 1 2.073543e+06 2.073545e+06 2.071
8 regular 9 41 841 70 1 0.340 faster 1 2.073546e+06 2.073548e+06 2.174
8 regular 9 42 842 50 1 0.532 slower 1 2.073550e+06 2.073552e+06 2.128
8 regular 9 43 843 51 1 0.420 slower 1 2.073554e+06 2.073555e+06 1.675
8 regular 9 44 844 69 1 0.599 faster 1 2.073558e+06 2.073560e+06 1.525
8 regular 9 45 845 68 1 0.499 faster 1 2.073561e+06 2.073563e+06 1.922
8 regular 9 46 846 52 1 0.595 slower 1 2.073565e+06 2.073567e+06 1.752
8 regular 9 47 847 53 1 0.234 faster 0 2.073568e+06 2.073570e+06 1.616
8 regular 9 48 848 52 1 0.166 slower 1 2.073571e+06 2.073573e+06 1.918
8 regular 9 49 849 68 1 0.460 faster 1 2.073574e+06 2.073575e+06 1.819
8 regular 9 50 850 53 1 0.253 faster 0 2.073577e+06 2.073580e+06 2.921
8 regular 9 51 851 52 1 0.387 faster 0 2.073581e+06 2.073583e+06 1.893
8 regular 9 52 852 69 1 0.182 faster 1 2.073584e+06 2.073586e+06 1.884
8 regular 9 53 853 51 1 0.226 slower 1 2.073587e+06 2.073589e+06 1.929
8 regular 9 54 854 68 1 0.266 faster 1 2.073591e+06 2.073592e+06 1.552
8 regular 9 55 855 68 1 0.338 faster 1 2.073594e+06 2.073595e+06 1.540
8 regular 9 56 856 53 1 0.430 faster 0 2.073597e+06 2.073598e+06 1.550
8 regular 9 57 857 52 1 0.308 slower 1 2.073600e+06 2.073602e+06 2.113
8 regular 9 58 858 68 1 0.271 faster 1 2.073603e+06 2.073605e+06 1.654
8 regular 9 59 859 67 1 0.226 faster 1 2.073606e+06 2.073608e+06 1.708
8 regular 9 60 860 67 1 0.102 faster 1 2.073609e+06 2.073611e+06 1.904
8 regular 9 61 861 54 1 0.275 faster 0 2.073612e+06 2.073614e+06 1.653
8 regular 9 62 862 53 1 0.389 faster 0 2.073616e+06 2.073618e+06 1.972
8 regular 9 63 863 68 1 0.434 faster 1 2.073619e+06 2.073622e+06 2.977
8 regular 9 64 864 68 1 0.588 faster 1 2.073624e+06 2.073627e+06 3.549
8 regular 9 65 865 67 1 0.265 faster 1 2.073629e+06 2.073630e+06 1.672
8 regular 9 66 866 67 1 0.571 faster 1 2.073632e+06 2.073633e+06 1.747
8 regular 9 67 867 54 1 0.141 faster 0 2.073636e+06 2.073638e+06 1.844
8 regular 9 68 868 53 1 0.396 faster 0 2.073639e+06 2.073641e+06 1.739
8 regular 9 69 869 68 1 0.214 faster 1 2.073642e+06 2.073644e+06 1.891
8 regular 9 70 870 68 1 0.585 faster 1 2.073646e+06 2.073648e+06 1.602
8 regular 9 71 871 53 1 0.396 slower 1 2.073649e+06 2.073651e+06 1.677
8 regular 9 72 872 53 1 0.358 slower 1 2.073652e+06 2.073654e+06 1.626
8 regular 9 73 873 54 1 0.591 faster 0 2.073656e+06 2.073657e+06 1.616
8 regular 9 74 874 53 1 0.248 faster 0 2.073658e+06 2.073660e+06 1.585
8 regular 9 75 875 52 1 0.216 faster 0 2.073661e+06 2.073663e+06 1.790
8 regular 9 76 876 69 1 0.247 faster 1 2.073665e+06 2.073666e+06 1.539
8 regular 9 77 877 51 1 0.156 faster 0 2.073667e+06 2.073669e+06 2.043
8 regular 9 78 878 50 1 0.366 faster 0 2.073671e+06 2.073673e+06 1.695
8 regular 9 79 879 71 1 0.165 faster 1 2.073673e+06 2.073675e+06 1.622
8 regular 9 80 880 70 1 0.596 faster 1 2.073676e+06 2.073678e+06 1.577
8 regular 9 81 881 70 1 0.428 faster 1 2.073679e+06 2.073681e+06 1.751
8 regular 9 82 882 69 1 0.538 faster 1 2.073682e+06 2.073684e+06 1.814
8 regular 9 83 883 69 1 0.195 faster 1 2.073686e+06 2.073687e+06 1.520
8 regular 9 84 884 68 1 0.401 faster 1 2.073689e+06 2.073690e+06 1.495
8 regular 9 85 885 68 1 0.106 faster 1 2.073691e+06 2.073693e+06 1.683
8 regular 9 86 886 53 1 0.518 faster 0 2.073696e+06 2.073697e+06 1.711
8 regular 9 87 887 52 1 0.498 faster 0 2.073699e+06 2.073700e+06 1.517
8 regular 9 88 888 51 1 0.123 faster 0 2.073702e+06 2.073705e+06 2.465
8 regular 9 89 889 50 1 0.414 slower 1 2.073707e+06 2.073708e+06 1.689
8 regular 9 90 890 50 1 0.400 slower 1 2.073710e+06 2.073712e+06 1.612
8 regular 9 91 891 51 1 0.402 slower 1 2.073714e+06 2.073715e+06 1.818
8 regular 9 92 892 69 1 0.257 faster 1 2.073717e+06 2.073718e+06 1.532
8 regular 9 93 893 52 1 0.133 faster 0 2.073720e+06 2.073721e+06 1.561
8 regular 9 94 894 69 1 0.586 faster 1 2.073723e+06 2.073725e+06 1.879
8 regular 9 95 895 51 1 0.279 faster 0 2.073727e+06 2.073729e+06 1.711
8 regular 9 96 896 50 1 0.504 faster 0 2.073731e+06 2.073732e+06 1.742
8 regular 9 97 897 49 1 0.568 slower 1 2.073734e+06 2.073736e+06 1.626
8 regular 9 98 898 70 1 0.284 faster 1 2.073738e+06 2.073740e+06 1.687
8 regular 9 99 899 50 1 0.208 slower 1 2.073741e+06 2.073743e+06 1.960
8 regular 9 100 900 69 1 0.488 faster 1 2.073745e+06 2.073747e+06 1.992
8 irregular 10 1 901 51 2.500000e+00 0.260 slower 1 2.073778e+06 2.073783e+06 4.318
8 irregular 10 2 902 68 1.500000e+00 0.598 faster 1 2.073784e+06 2.073786e+06 2.024
8 irregular 10 3 903 52 3 0.448 slower 1 2.073788e+06 2.073792e+06 3.876
8 irregular 10 4 904 53 2 0.267 slower 1 2.073793e+06 2.073796e+06 2.733
8 irregular 10 5 905 53 2 0.536 slower 1 2.073797e+06 2.073800e+06 2.633
8 irregular 10 6 906 66 1.500000e+00 0.308 slower 0 2.073802e+06 2.073805e+06 3.166
8 irregular 10 7 907 67 1.500000e+00 0.489 faster 1 2.073806e+06 2.073808e+06 2.155
8 irregular 10 8 908 53 1 0.462 slower 1 2.073810e+06 2.073812e+06 1.678
8 irregular 10 9 909 66 1 0.365 faster 1 2.073813e+06 2.073815e+06 1.868
8 irregular 10 10 910 66 3 0.242 slower 0 2.073816e+06 2.073820e+06 3.216
8 irregular 10 11 911 67 2 0.164 faster 1 2.073820e+06 2.073825e+06 4.607
8 irregular 10 12 912 54 2.500000e+00 0.560 slower 1 2.073826e+06 2.073830e+06 3.496
8 irregular 10 13 913 54 1.500000e+00 0.309 none 2 2.073831e+06 2.073836e+06 4.500
8 irregular 10 14 914 54 1.500000e+00 0.505 slower 1 2.073837e+06 2.073839e+06 2.340
8 irregular 10 15 915 65 3 0.558 faster 1 2.073840e+06 2.073845e+06 4.252
8 irregular 10 16 916 65 2.500000e+00 0.263 slower 0 2.073846e+06 2.073850e+06 3.684
8 irregular 10 17 917 54 3 0.156 slower 1 2.073852e+06 2.073850e+06 -1.763
8 irregular 10 18 918 55 2.500000e+00 0.463 faster 0 2.073856e+06 2.073859e+06 2.951
8 irregular 10 19 919 54 2 0.143 slower 1 2.073861e+06 2.073864e+06 3.757
8 irregular 10 20 920 54 1.500000e+00 0.391 slower 1 2.073866e+06 2.073869e+06 2.766
8 irregular 10 21 921 65 3 0.473 faster 1 2.073870e+06 2.073875e+06 4.615
8 irregular 10 22 922 55 1.500000e+00 0.468 slower 1 2.073876e+06 2.073879e+06 2.442
8 irregular 10 23 923 64 2.500000e+00 0.554 slower 0 2.073881e+06 2.073884e+06 3.421
8 irregular 10 24 924 65 2.500000e+00 0.165 faster 1 2.073885e+06 2.073890e+06 4.307
8 irregular 10 25 925 65 2.500000e+00 0.231 slower 0 2.073891e+06 2.073894e+06 3.428
8 irregular 10 26 926 66 3 0.317 slower 0 2.073896e+06 2.073900e+06 3.770
8 irregular 10 27 927 53 2 0.523 slower 1 2.073902e+06 2.073904e+06 2.195
8 irregular 10 28 928 66 1 0.261 faster 1 2.073906e+06 2.073909e+06 3.279
8 irregular 10 29 929 66 2.500000e+00 0.493 slower 0 2.073911e+06 2.073914e+06 3.412
8 irregular 10 30 930 67 1 0.571 faster 1 2.073916e+06 2.073920e+06 3.904
8 irregular 10 31 931 54 1 0.505 faster 0 2.073921e+06 2.073923e+06 1.932
8 irregular 10 32 932 53 3 0.528 faster 0 2.073925e+06 2.073929e+06 4.001
8 irregular 10 33 933 52 2 0.478 faster 0 2.073931e+06 2.073935e+06 4.360
8 irregular 10 34 934 69 2.500000e+00 0.337 slower 0 2.073937e+06 2.073940e+06 2.635
8 irregular 10 35 935 70 1.500000e+00 0.457 faster 1 2.073941e+06 2.073944e+06 2.221
8 irregular 10 36 936 70 1 0.477 faster 1 2.073945e+06 2.073947e+06 1.957
8 irregular 10 37 937 69 1.500000e+00 0.405 faster 1 2.073949e+06 2.073951e+06 2.272
8 irregular 10 38 938 69 3 0.164 faster 1 2.073952e+06 2.073956e+06 3.976
8 irregular 10 39 939 68 1 0.280 faster 1 2.073958e+06 2.073960e+06 1.946
8 irregular 10 40 940 68 1.500000e+00 0.252 faster 1 2.073961e+06 2.073963e+06 2.276
8 irregular 10 41 941 67 2.500000e+00 0.541 slower 0 2.073965e+06 2.073968e+06 3.245
8 irregular 10 42 942 68 3 0.237 slower 0 2.073970e+06 2.073974e+06 4.018
8 irregular 10 43 943 51 2.500000e+00 0.198 slower 1 2.073975e+06 2.073979e+06 3.527
8 irregular 10 44 944 51 1 0.385 slower 1 2.073980e+06 2.073983e+06 2.175
8 irregular 10 45 945 52 1 0.558 slower 1 2.073985e+06 2.073987e+06 2.292
8 irregular 10 46 946 68 2 0.473 faster 1 2.073989e+06 2.073992e+06 2.683
8 irregular 10 47 947 67 2 0.316 faster 1 2.073993e+06 2.073996e+06 2.692
8 irregular 10 48 948 53 3 0.245 none 2 2.073997e+06 2.074003e+06 5.999
8 irregular 10 49 949 67 1.500000e+00 0.323 faster 1 2.074005e+06 2.074007e+06 2.255
8 irregular 10 50 950 54 1.500000e+00 0.403 slower 1 2.074009e+06 2.074011e+06 2.362
8 irregular 10 51 951 54 1 0.276 faster 0 2.074013e+06 2.074015e+06 1.838
8 irregular 10 52 952 67 2.500000e+00 0.438 faster 1 2.074017e+06 2.074020e+06 3.400
8 irregular 10 53 953 66 2.500000e+00 0.201 slower 0 2.074023e+06 2.074027e+06 3.776
8 irregular 10 54 954 67 2 0.152 faster 1 2.074030e+06 2.074033e+06 3.499
8 irregular 10 55 955 53 3 0.187 slower 1 2.074042e+06 2.074046e+06 3.862
8 irregular 10 56 956 54 2.500000e+00 0.422 slower 1 2.074047e+06 2.074052e+06 4.793
8 irregular 10 57 957 54 2.500000e+00 0.545 faster 0 2.074054e+06 2.074057e+06 3.433
8 irregular 10 58 958 53 2.500000e+00 0.322 faster 0 2.074059e+06 2.074062e+06 3.396
8 irregular 10 59 959 68 1 0.579 faster 1 2.074064e+06 2.074066e+06 1.831
8 irregular 10 60 960 67 3 0.327 slower 0 2.074067e+06 2.074071e+06 4.258
8 irregular 10 61 961 68 1 0.411 slower 0 2.074073e+06 2.074075e+06 1.833
8 irregular 10 62 962 51 1.500000e+00 0.291 none 2 2.074076e+06 2.074081e+06 4.499
8 irregular 10 63 963 51 1 0.389 slower 1 2.074082e+06 2.074084e+06 1.699
8 irregular 10 64 964 51 3 0.300 none 2 2.074085e+06 2.074091e+06 6.000
8 irregular 10 65 965 69 1 0.170 faster 1 2.074092e+06 2.074094e+06 2.287
8 irregular 10 66 966 68 1 0.457 faster 1 2.074096e+06 2.074099e+06 2.937
8 irregular 10 67 967 52 1.500000e+00 0.514 faster 0 2.074100e+06 2.074103e+06 3.008
8 irregular 10 68 968 51 2 0.498 slower 1 2.074105e+06 2.074108e+06 3.054
8 irregular 10 69 969 52 1.500000e+00 0.218 slower 1 2.074109e+06 2.074112e+06 2.415
8 irregular 10 70 970 68 2 0.424 faster 1 2.074113e+06 2.074117e+06 4.027
8 irregular 10 71 971 53 3 0.114 faster 0 2.074118e+06 2.074123e+06 4.841
8 irregular 10 72 972 68 3 0.346 faster 1 2.074125e+06 2.074128e+06 3.698
8 irregular 10 73 973 52 2 0.180 none 2 2.074130e+06 2.074135e+06 5.000
8 irregular 10 74 974 68 2.500000e+00 0.331 faster 1 2.074136e+06 2.074139e+06 3.116
8 irregular 10 75 975 53 1 0.408 none 2 2.074140e+06 2.074144e+06 3.999
8 irregular 10 76 976 53 2 0.220 slower 1 2.074145e+06 2.074148e+06 2.772
8 irregular 10 77 977 53 3 0.171 slower 1 2.074149e+06 2.074153e+06 3.786
8 irregular 10 78 978 66 1.500000e+00 0.120 slower 0 2.074154e+06 2.074157e+06 2.397
8 irregular 10 79 979 53 2 0.516 slower 1 2.074159e+06 2.074161e+06 2.672
8 irregular 10 80 980 53 3 0.239 slower 1 2.074163e+06 2.074166e+06 3.770
8 irregular 10 81 981 66 3 0.176 slower 0 2.074168e+06 2.074172e+06 4.122
8 irregular 10 82 982 53 2.500000e+00 0.350 slower 1 2.074173e+06 2.074177e+06 3.336
8 irregular 10 83 983 53 2.500000e+00 0.392 faster 0 2.074178e+06 2.074182e+06 3.485
8 irregular 10 84 984 52 1.500000e+00 0.143 slower 1 2.074183e+06 2.074185e+06 2.208
8 irregular 10 85 985 67 2 0.588 faster 1 2.074187e+06 2.074190e+06 2.738
8 irregular 10 86 986 53 2.500000e+00 0.406 slower 1 2.074191e+06 2.074195e+06 3.404
8 irregular 10 87 987 66 1.500000e+00 0.571 faster 1 2.074196e+06 2.074199e+06 2.415
8 irregular 10 88 988 66 2 0.226 slower 0 2.074200e+06 2.074203e+06 2.701
8 irregular 10 89 989 53 1 0.430 faster 0 2.074204e+06 2.074206e+06 1.832
8 irregular 10 90 990 68 2 0.305 faster 1 2.074208e+06 2.074211e+06 3.071
8 irregular 10 91 991 53 2 0.253 faster 0 2.074212e+06 2.074215e+06 2.977
8 irregular 10 92 992 52 1 0.305 faster 0 2.074216e+06 2.074218e+06 2.253
8 irregular 10 93 993 69 1.500000e+00 0.327 faster 1 2.074219e+06 2.074222e+06 2.298
8 irregular 10 94 994 69 2 0.354 faster 1 2.074223e+06 2.074225e+06 2.724
8 irregular 10 95 995 52 1 0.344 faster 0 2.074227e+06 2.074229e+06 1.829
8 irregular 10 96 996 69 2 0.147 none 2 2.074229e+06 2.074234e+06 4.999
8 irregular 10 97 997 51 1.500000e+00 0.416 slower 1 2.074236e+06 2.074238e+06 2.180
8 irregular 10 98 998 69 3 0.265 faster 1 2.074239e+06 2.074243e+06 3.860
8 irregular 10 99 999 68 1 0.177 faster 1 2.074244e+06 2.074246e+06 1.776
8 irregular 10 100 1000 52 3 0.196 slower 1 2.074248e+06 2.074251e+06 3.752
