subNo condition blockNo trialNo trialID currentFrequency cueTargetInterval randomPreCueInterval response responseAccuracy startTime responseTime RT
5 irregular 1 1 1 23 2.500000e+00 0.266 slower 1 5.248062e+05 5.248098e+05 3.567
5 irregular 1 2 2 97 2 0.103 faster 1 5.248106e+05 5.248139e+05 3.313
5 irregular 1 3 3 25 3 0.484 slower 1 5.248150e+05 5.248188e+05 3.769
5 irregular 1 4 4 95 2 0.295 slower 0 5.248198e+05 5.248234e+05 3.585
5 irregular 1 5 5 97 2 0.289 faster 1 5.248249e+05 5.248285e+05 3.632
5 irregular 1 6 6 95 1.500000e+00 0.123 faster 1 5.248299e+05 5.248323e+05 2.384
5 irregular 1 7 7 25 1.500000e+00 0.165 faster 0 5.248336e+05 5.248361e+05 2.500
5 irregular 1 8 8 23 1.500000e+00 0.595 faster 0 5.248373e+05 5.248402e+05 2.875
5 irregular 1 9 9 21 1.500000e+00 0.208 faster 0 5.248416e+05 5.248443e+05 2.736
5 irregular 1 10 10 19 1.500000e+00 0.135 faster 0 5.248458e+05 5.248482e+05 2.427
5 irregular 1 11 11 17 2 0.483 slower 1 5.248493e+05 5.248523e+05 3.006
5 irregular 1 12 12 101 2 0.390 slower 0 5.248540e+05 5.248570e+05 2.987
5 irregular 1 13 13 102 3 0.457 slower 0 5.248582e+05 5.248619e+05 3.695
5 irregular 1 14 14 103 2.500000e+00 0.126 faster 1 5.248627e+05 5.248663e+05 3.614
5 irregular 1 15 15 17 3 0.200 slower 1 5.248676e+05 5.248715e+05 3.862
5 irregular 1 16 16 18 2 0.125 slower 1 5.248728e+05 5.248760e+05 3.228
5 irregular 1 17 17 102 1.500000e+00 0.115 slower 0 5.248774e+05 5.248798e+05 2.490
5 irregular 1 18 18 103 3 0.323 slower 0 5.248811e+05 5.248851e+05 3.954
5 irregular 1 19 19 104 1.500000e+00 0.149 faster 1 5.248866e+05 5.248889e+05 2.258
5 irregular 1 20 20 17 3 0.410 slower 1 5.248903e+05 5.248941e+05 3.807
5 irregular 1 21 21 103 3 0.273 slower 0 5.248951e+05 5.248987e+05 3.642
5 irregular 1 22 22 16 1 0.294 faster 0 5.248997e+05 5.249020e+05 2.299
5 irregular 1 23 23 15 1.500000e+00 0.278 faster 0 5.249029e+05 5.249058e+05 2.846
5 irregular 1 24 24 14 3 0.403 slower 1 5.249076e+05 5.249113e+05 3.699
5 irregular 1 25 25 105 2 0.427 slower 0 5.249131e+05 5.249161e+05 2.965
5 irregular 1 26 26 14 2.500000e+00 0.445 faster 0 5.249175e+05 5.249208e+05 3.330
5 irregular 1 27 27 13 1 0.304 slower 1 5.249226e+05 5.249258e+05 3.227
5 irregular 1 28 28 13 3 0.596 slower 1 5.249319e+05 5.249357e+05 3.769
5 irregular 1 29 29 106 1.500000e+00 0.324 faster 1 5.249375e+05 5.249400e+05 2.463
5 irregular 1 30 30 14 2.500000e+00 0.440 none 2 5.249419e+05 5.249474e+05 5.499
5 irregular 1 31 31 106 2.500000e+00 0.396 faster 1 5.249484e+05 5.249520e+05 3.614
5 irregular 1 32 32 15 1 0.338 faster 0 5.249538e+05 5.249556e+05 1.809
5 irregular 1 33 33 106 1 0.385 faster 1 5.249574e+05 5.249592e+05 1.745
5 irregular 1 34 34 106 1.500000e+00 0.499 slower 0 5.249603e+05 5.249627e+05 2.327
5 irregular 1 35 35 107 1 0.227 faster 1 5.249645e+05 5.249675e+05 2.943
5 irregular 1 36 36 106 3 0.477 slower 0 5.249704e+05 5.249744e+05 3.983
5 irregular 1 37 37 13 2.500000e+00 0.237 faster 0 5.249760e+05 5.249795e+05 3.474
5 irregular 1 38 38 108 3 0.294 slower 0 5.249804e+05 5.249844e+05 3.980
5 irregular 1 39 39 11 3 0.191 slower 1 5.249858e+05 5.249894e+05 3.609
5 irregular 1 40 40 109 1 0.161 faster 1 5.249996e+05 5.250014e+05 1.796
5 irregular 1 41 41 12 2.500000e+00 0.162 slower 1 5.250034e+05 5.250065e+05 3.119
5 irregular 1 42 42 108 2.500000e+00 0.417 faster 1 5.250091e+05 5.250126e+05 3.542
5 irregular 1 43 43 13 1 0.492 faster 0 5.250203e+05 5.250224e+05 2.030
5 irregular 1 44 44 12 2.500000e+00 0.143 slower 1 5.250274e+05 5.250314e+05 4.003
5 irregular 1 45 45 12 1.500000e+00 0.208 slower 1 5.250369e+05 5.250402e+05 3.312
5 irregular 1 46 46 13 2 0.186 faster 0 5.250414e+05 5.250446e+05 3.195
5 irregular 1 47 47 108 3 0.151 faster 1 5.250454e+05 5.250491e+05 3.768
5 irregular 1 48 48 108 3 0.346 faster 1 5.250501e+05 5.250538e+05 3.645
5 irregular 1 49 49 13 1 0.110 faster 0 5.250551e+05 5.250570e+05 1.896
5 irregular 1 50 50 108 2.500000e+00 0.478 faster 1 5.250596e+05 5.250627e+05 3.114
5 irregular 1 51 51 12 1.500000e+00 0.556 faster 0 5.250661e+05 5.250684e+05 2.324
5 irregular 1 52 52 109 1 0.435 faster 1 5.250712e+05 5.250729e+05 1.655
5 irregular 1 53 53 12 2 0.542 faster 0 5.250742e+05 5.250771e+05 2.868
5 irregular 1 54 54 11 1 0.125 faster 0 5.250779e+05 5.250797e+05 1.885
5 irregular 1 55 55 10 2 0.477 slower 1 5.250816e+05 5.250842e+05 2.626
5 irregular 1 56 56 110 1.500000e+00 0.330 slower 0 5.250855e+05 5.250877e+05 2.267
5 irregular 1 57 57 9 3 0.248 faster 0 5.250897e+05 5.250938e+05 4.098
5 irregular 1 58 58 112 2 0.416 slower 0 5.250979e+05 5.251015e+05 3.635
5 irregular 1 59 59 7 1 0.335 none 2 5.251045e+05 5.251085e+05 4.000
5 irregular 1 60 60 113 2 0.236 faster 1 5.251107e+05 5.251137e+05 3.016
5 irregular 1 61 61 112 3 0.107 faster 1 5.251158e+05 5.251197e+05 3.905
5 irregular 1 62 62 112 2.500000e+00 0.514 faster 1 5.251209e+05 5.251245e+05 3.653
5 irregular 1 63 63 9 2 0.547 faster 0 5.251263e+05 5.251297e+05 3.401
5 irregular 1 64 64 112 1 0.584 faster 1 5.251317e+05 5.251337e+05 1.963
5 irregular 1 65 65 8 1.500000e+00 0.372 slower 1 5.251354e+05 5.251376e+05 2.203
5 irregular 1 66 66 111 1 0.109 faster 1 5.251390e+05 5.251407e+05 1.662
5 irregular 1 67 67 9 2.500000e+00 0.401 slower 1 5.251426e+05 5.251457e+05 3.076
5 irregular 1 68 68 10 1 0.221 faster 0 5.251474e+05 5.251491e+05 1.752
5 irregular 1 69 69 9 1.500000e+00 0.399 faster 0 5.251502e+05 5.251526e+05 2.375
5 irregular 1 70 70 112 1 0.534 faster 1 5.251538e+05 5.251555e+05 1.711
5 irregular 1 71 71 112 2.500000e+00 0.326 slower 0 5.251574e+05 5.251614e+05 4.005
5 irregular 1 72 72 7 2.500000e+00 0.139 slower 1 5.251628e+05 5.251666e+05 3.773
5 irregular 1 73 73 8 1.500000e+00 0.550 slower 1 5.251717e+05 5.251741e+05 2.418
5 irregular 1 74 74 112 2 0.374 faster 1 5.251751e+05 5.251782e+05 3.069
5 irregular 1 75 75 111 2.500000e+00 0.572 slower 0 5.251885e+05 5.251927e+05 4.183
5 irregular 1 76 76 112 1.500000e+00 0.593 faster 1 5.251945e+05 5.251969e+05 2.459
5 irregular 1 77 77 8 2 0.137 faster 0 5.251978e+05 5.252009e+05 3.164
5 irregular 1 78 78 113 2 0.543 faster 1 5.252029e+05 5.252056e+05 2.658
5 irregular 1 79 79 8 2.500000e+00 0.254 slower 1 5.252106e+05 5.252139e+05 3.261
5 irregular 1 80 80 8 2 0.211 faster 0 5.252150e+05 5.252177e+05 2.710
5 irregular 1 81 81 113 3 0.375 none 2 5.252188e+05 5.252248e+05 6.000
5 irregular 1 82 82 113 1 0.118 faster 1 5.252256e+05 5.252273e+05 1.668
5 irregular 1 83 83 8 3 0.384 slower 1 5.252290e+05 5.252326e+05 3.620
5 irregular 1 84 84 112 1.500000e+00 0.531 slower 0 5.252342e+05 5.252374e+05 3.212
5 irregular 1 85 85 7 3 0.125 slower 1 5.252388e+05 5.252429e+05 4.131
5 irregular 1 86 86 8 1 0.377 faster 0 5.252440e+05 5.252458e+05 1.803
5 irregular 1 87 87 7 2.500000e+00 0.389 faster 0 5.252469e+05 5.252501e+05 3.272
5 irregular 1 88 88 114 1.500000e+00 0.308 faster 1 5.252511e+05 5.252532e+05 2.087
5 irregular 1 89 89 114 1 0.107 faster 1 5.252550e+05 5.252565e+05 1.502
5 irregular 1 90 90 113 2.500000e+00 0.561 faster 1 5.252584e+05 5.252615e+05 3.054
5 irregular 1 91 91 7 2 0.570 faster 0 5.252658e+05 5.252692e+05 3.392
5 irregular 1 92 92 6 2 0.270 slower 1 5.252707e+05 5.252739e+05 3.241
5 irregular 1 93 93 113 2 0.473 faster 1 5.252758e+05 5.252788e+05 3.072
5 irregular 1 94 94 113 1.500000e+00 0.509 slower 0 5.252804e+05 5.252827e+05 2.344
5 irregular 1 95 95 6 1 0.567 none 2 5.252840e+05 5.252880e+05 3.999
5 irregular 1 96 96 6 3 0.567 slower 1 5.252911e+05 5.252955e+05 4.428
5 irregular 1 97 97 113 3 0.507 slower 0 5.252979e+05 5.253016e+05 3.623
5 irregular 1 98 98 114 2.500000e+00 0.457 slower 0 5.253036e+05 5.253073e+05 3.716
5 irregular 1 99 99 115 1 0.445 faster 1 5.253093e+05 5.253110e+05 1.647
5 irregular 1 100 100 115 2.500000e+00 0.112 faster 1 5.253163e+05 5.253198e+05 3.528
5 regular 2 1 101 114 2.500000e+00 0.544 slower 0 5.253475e+05 5.253528e+05 5.316
5 regular 2 2 102 115 2.500000e+00 0.551 slower 0 5.253549e+05 5.253588e+05 3.929
5 regular 2 3 103 4 2.500000e+00 0.132 slower 1 5.253596e+05 5.253628e+05 3.226
5 regular 2 4 104 4 2.500000e+00 0.556 slower 1 5.253640e+05 5.253678e+05 3.749
5 regular 2 5 105 115 2.500000e+00 0.206 faster 1 5.253701e+05 5.253738e+05 3.652
5 regular 2 6 106 5 2.500000e+00 0.550 slower 1 5.253754e+05 5.253786e+05 3.157
5 regular 2 7 107 114 2.500000e+00 0.204 faster 1 5.253794e+05 5.253829e+05 3.511
5 regular 2 8 108 114 2.500000e+00 0.354 slower 0 5.253839e+05 5.253877e+05 3.748
5 regular 2 9 109 115 2.500000e+00 0.103 faster 1 5.253889e+05 5.253926e+05 3.629
5 regular 2 10 110 6 2.500000e+00 0.557 slower 1 5.253938e+05 5.253969e+05 3.087
5 regular 2 11 111 114 2.500000e+00 0.456 slower 0 5.253985e+05 5.254018e+05 3.252
5 regular 2 12 112 5 2.500000e+00 0.578 slower 1 5.254030e+05 5.254063e+05 3.276
5 regular 2 13 113 6 2.500000e+00 0.380 slower 1 5.254073e+05 5.254108e+05 3.502
5 regular 2 14 114 6 2.500000e+00 0.517 slower 1 5.254127e+05 5.254160e+05 3.347
5 regular 2 15 115 113 2.500000e+00 0.254 slower 0 5.254175e+05 5.254212e+05 3.646
5 regular 2 16 116 114 2.500000e+00 0.173 faster 1 5.254231e+05 5.254263e+05 3.203
5 regular 2 17 117 114 2.500000e+00 0.315 faster 1 5.254280e+05 5.254311e+05 3.114
5 regular 2 18 118 113 2.500000e+00 0.423 faster 1 5.254322e+05 5.254354e+05 3.189
5 regular 2 19 119 7 2.500000e+00 0.548 faster 0 5.254365e+05 5.254397e+05 3.125
5 regular 2 20 120 114 2.500000e+00 0.552 faster 1 5.254415e+05 5.254446e+05 3.138
5 regular 2 21 121 113 2.500000e+00 0.584 faster 1 5.254461e+05 5.254492e+05 3.111
5 regular 2 22 122 7 2.500000e+00 0.195 faster 0 5.254508e+05 5.254545e+05 3.704
5 regular 2 23 123 6 2.500000e+00 0.547 slower 1 5.254557e+05 5.254597e+05 4.035
5 regular 2 24 124 113 2.500000e+00 0.260 slower 0 5.254606e+05 5.254638e+05 3.199
5 regular 2 25 125 6 2.500000e+00 0.574 slower 1 5.254650e+05 5.254688e+05 3.762
5 regular 2 26 126 6 2.500000e+00 0.479 slower 1 5.254705e+05 5.254737e+05 3.156
5 regular 2 27 127 7 2.500000e+00 0.565 slower 1 5.254764e+05 5.254801e+05 3.760
5 regular 2 28 128 7 2.500000e+00 0.409 slower 1 5.254812e+05 5.254844e+05 3.248
5 regular 2 29 129 112 2.500000e+00 0.167 slower 0 5.254867e+05 5.254899e+05 3.185
5 regular 2 30 130 113 2.500000e+00 0.545 faster 1 5.254994e+05 5.255028e+05 3.425
5 regular 2 31 131 7 2.500000e+00 0.466 faster 0 5.255054e+05 5.255086e+05 3.150
5 regular 2 32 132 6 2.500000e+00 0.339 faster 0 5.255096e+05 5.255126e+05 3.068
5 regular 2 33 133 115 2.500000e+00 0.540 slower 0 5.255168e+05 5.255200e+05 3.211
5 regular 2 34 134 116 2.500000e+00 0.578 faster 1 5.255232e+05 5.255269e+05 3.709
5 regular 2 35 135 115 2.500000e+00 0.305 faster 1 5.255278e+05 5.255310e+05 3.147
5 regular 2 36 136 5 2.500000e+00 0.322 faster 0 5.255319e+05 5.255350e+05 3.091
5 regular 2 37 137 116 2.500000e+00 0.133 faster 1 5.255358e+05 5.255390e+05 3.184
5 regular 2 38 138 115 2.500000e+00 0.136 faster 1 5.255403e+05 5.255435e+05 3.137
5 regular 2 39 139 5 2.500000e+00 0.600 faster 0 5.255453e+05 5.255487e+05 3.417
5 regular 2 40 140 116 2.500000e+00 0.406 faster 1 5.255503e+05 5.255536e+05 3.312
5 regular 2 41 141 115 2.500000e+00 0.385 slower 0 5.255552e+05 5.255585e+05 3.237
5 regular 2 42 142 4 2.500000e+00 0.260 slower 1 5.255608e+05 5.255640e+05 3.222
5 regular 2 43 143 4 2.500000e+00 0.153 faster 0 5.255656e+05 5.255689e+05 3.260
5 regular 2 44 144 117 2.500000e+00 0.391 faster 1 5.255706e+05 5.255738e+05 3.244
5 regular 2 45 145 4 2.500000e+00 0.129 slower 1 5.255754e+05 5.255790e+05 3.660
5 regular 2 46 146 116 2.500000e+00 0.337 faster 1 5.255809e+05 5.255838e+05 2.979
5 regular 2 47 147 115 2.500000e+00 0.558 faster 1 5.255856e+05 5.255890e+05 3.392
5 regular 2 48 148 5 2.500000e+00 0.131 slower 1 5.255977e+05 5.256009e+05 3.252
5 regular 2 49 149 6 2.500000e+00 0.436 slower 1 5.256033e+05 5.256065e+05 3.215
5 regular 2 50 150 6 2.500000e+00 0.244 slower 1 5.256074e+05 5.256105e+05 3.127
5 regular 2 51 151 7 2.500000e+00 0.522 slower 1 5.256165e+05 5.256197e+05 3.178
5 regular 2 52 152 7 2.500000e+00 0.497 faster 0 5.256229e+05 5.256260e+05 3.076
5 regular 2 53 153 114 2.500000e+00 0.468 faster 1 5.256290e+05 5.256321e+05 3.122
5 regular 2 54 154 113 2.500000e+00 0.314 faster 1 5.256336e+05 5.256366e+05 3.009
5 regular 2 55 155 7 2.500000e+00 0.171 faster 0 5.256383e+05 5.256413e+05 2.988
5 regular 2 56 156 114 2.500000e+00 0.317 faster 1 5.256432e+05 5.256462e+05 2.991
5 regular 2 57 157 7 2.500000e+00 0.560 faster 0 5.256480e+05 5.256510e+05 3.023
5 regular 2 58 158 114 2.500000e+00 0.430 faster 1 5.256527e+05 5.256556e+05 2.903
5 regular 2 59 159 114 2.500000e+00 0.331 faster 1 5.256582e+05 5.256613e+05 3.101
5 regular 2 60 160 7 2.500000e+00 0.544 faster 0 5.256630e+05 5.256661e+05 3.183
5 regular 2 61 161 114 2.500000e+00 0.263 faster 1 5.256676e+05 5.256709e+05 3.242
5 regular 2 62 162 114 2.500000e+00 0.259 faster 1 5.256740e+05 5.256771e+05 3.097
5 regular 2 63 163 113 2.500000e+00 0.441 faster 1 5.256789e+05 5.256819e+05 3.043
5 regular 2 64 164 113 2.500000e+00 0.589 slower 0 5.256839e+05 5.256870e+05 3.083
5 regular 2 65 165 6 2.500000e+00 0.485 slower 1 5.256928e+05 5.256970e+05 4.252
5 regular 2 66 166 7 2.500000e+00 0.200 slower 1 5.257012e+05 5.257053e+05 4.012
5 regular 2 67 167 7 2.500000e+00 0.521 slower 1 5.257068e+05 5.257102e+05 3.387
5 regular 2 68 168 8 2.500000e+00 0.381 faster 0 5.257118e+05 5.257157e+05 3.927
5 regular 2 69 169 7 2.500000e+00 0.239 slower 1 5.257175e+05 5.257215e+05 4.059
5 regular 2 70 170 7 2.500000e+00 0.111 slower 1 5.257223e+05 5.257265e+05 4.235
5 regular 2 71 171 8 2.500000e+00 0.381 faster 0 5.257290e+05 5.257330e+05 4.047
5 regular 2 72 172 113 2.500000e+00 0.380 faster 1 5.257346e+05 5.257377e+05 3.086
5 regular 2 73 173 7 2.500000e+00 0.417 none 2 5.257392e+05 5.257447e+05 5.499
5 regular 2 74 174 7 2.500000e+00 0.255 faster 0 5.257517e+05 5.257550e+05 3.338
5 regular 2 75 175 6 2.500000e+00 0.558 faster 0 5.257580e+05 5.257616e+05 3.561
5 regular 2 76 176 115 2.500000e+00 0.518 slower 0 5.257645e+05 5.257679e+05 3.471
5 regular 2 77 177 116 2.500000e+00 0.472 faster 1 5.257707e+05 5.257740e+05 3.232
5 regular 2 78 178 115 2.500000e+00 0.274 faster 1 5.257754e+05 5.257786e+05 3.168
5 regular 2 79 179 5 2.500000e+00 0.217 faster 0 5.257799e+05 5.257832e+05 3.289
5 regular 2 80 180 116 2.500000e+00 0.376 faster 1 5.257849e+05 5.257879e+05 3.028
5 regular 2 81 181 5 2.500000e+00 0.561 slower 1 5.257894e+05 5.257925e+05 3.128
5 regular 2 82 182 115 2.500000e+00 0.242 faster 1 5.257943e+05 5.257976e+05 3.335
5 regular 2 83 183 6 2.500000e+00 0.548 faster 0 5.257998e+05 5.258036e+05 3.806
5 regular 2 84 184 115 2.500000e+00 0.588 faster 1 5.258054e+05 5.258086e+05 3.138
5 regular 2 85 185 115 2.500000e+00 0.570 slower 0 5.258150e+05 5.258185e+05 3.410
5 regular 2 86 186 4 2.500000e+00 0.492 none 2 5.258202e+05 5.258257e+05 5.499
5 regular 2 87 187 4 2.500000e+00 0.172 slower 1 5.258274e+05 5.258308e+05 3.440
5 regular 2 88 188 5 2.500000e+00 0.229 slower 1 5.258330e+05 5.258373e+05 4.276
5 regular 2 89 189 5 2.500000e+00 0.533 faster 0 5.258389e+05 5.258426e+05 3.608
5 regular 2 90 190 4 2.500000e+00 0.246 faster 0 5.258434e+05 5.258465e+05 3.086
5 regular 2 91 191 117 2.500000e+00 0.445 faster 1 5.258482e+05 5.258514e+05 3.195
5 regular 2 92 192 116 2.500000e+00 0.278 faster 1 5.258530e+05 5.258561e+05 3.092
5 regular 2 93 193 4 2.500000e+00 0.475 faster 0 5.258615e+05 5.258655e+05 4.016
5 regular 2 94 194 117 2.500000e+00 0.539 faster 1 5.258674e+05 5.258707e+05 3.284
5 regular 2 95 195 116 2.500000e+00 0.461 slower 0 5.258720e+05 5.258759e+05 3.913
5 regular 2 96 196 117 2.500000e+00 0.469 faster 1 5.258801e+05 5.258833e+05 3.253
5 regular 2 97 197 117 2.500000e+00 0.523 faster 1 5.258851e+05 5.258884e+05 3.215
5 regular 2 98 198 4 2.500000e+00 0.242 slower 1 5.258897e+05 5.258936e+05 3.945
5 regular 2 99 199 116 2.500000e+00 0.548 faster 1 5.258953e+05 5.258983e+05 3.034
5 regular 2 100 200 5 2.500000e+00 0.369 faster 0 5.259005e+05 5.259036e+05 3.152
5 irregular 3 1 201 116 1.500000e+00 0.156 none 2 5.259271e+05 5.259316e+05 4.500
5 irregular 3 2 202 4 3 0.515 slower 1 5.259382e+05 5.259440e+05 5.761
5 irregular 3 3 203 116 2.500000e+00 0.234 faster 1 5.259449e+05 5.259482e+05 3.316
5 irregular 3 4 204 5 3 0.206 faster 0 5.259495e+05 5.259530e+05 3.594
5 irregular 3 5 205 116 1 0.304 faster 1 5.259540e+05 5.259559e+05 1.868
5 irregular 3 6 206 116 3 0.315 faster 1 5.259574e+05 5.259615e+05 4.073
5 irregular 3 7 207 5 2.500000e+00 0.152 faster 0 5.259629e+05 5.259660e+05 3.043
5 irregular 3 8 208 116 2.500000e+00 0.533 faster 1 5.259678e+05 5.259709e+05 3.155
5 irregular 3 9 209 116 1.500000e+00 0.286 faster 1 5.259726e+05 5.259745e+05 1.934
5 irregular 3 10 210 115 1 0.421 faster 1 5.259756e+05 5.259771e+05 1.569
5 irregular 3 11 211 5 1 0.222 faster 0 5.259780e+05 5.259795e+05 1.489
5 irregular 3 12 212 4 2.500000e+00 0.342 slower 1 5.259805e+05 5.259837e+05 3.184
5 irregular 3 13 213 5 2.500000e+00 0.192 slower 1 5.259923e+05 5.259955e+05 3.193
5 irregular 3 14 214 115 2 0.163 slower 0 5.259970e+05 5.259999e+05 2.863
5 irregular 3 15 215 116 2.500000e+00 0.450 slower 0 5.260021e+05 5.260053e+05 3.194
5 irregular 3 16 216 3 1 0.404 none 2 5.260124e+05 5.260164e+05 3.999
5 irregular 3 17 217 3 3 0.533 slower 1 5.260190e+05 5.260232e+05 4.180
5 irregular 3 18 218 4 3 0.488 slower 1 5.260253e+05 5.260292e+05 3.866
5 irregular 3 19 219 4 1.500000e+00 0.573 faster 0 5.260310e+05 5.260339e+05 2.922
5 irregular 3 20 220 117 1.500000e+00 0.146 faster 1 5.260377e+05 5.260407e+05 2.981
5 irregular 3 21 221 116 1.500000e+00 0.302 faster 1 5.260425e+05 5.260446e+05 2.127
5 irregular 3 22 222 116 2.500000e+00 0.568 faster 1 5.260465e+05 5.260496e+05 3.121
5 irregular 3 23 223 115 1 0.305 faster 1 5.260587e+05 5.260604e+05 1.712
5 irregular 3 24 224 5 3 0.548 slower 1 5.260622e+05 5.260659e+05 3.675
5 irregular 3 25 225 6 1 0.577 slower 1 5.260677e+05 5.260698e+05 2.063
5 irregular 3 26 226 6 2 0.414 slower 1 5.260716e+05 5.260744e+05 2.825
5 irregular 3 27 227 7 1.500000e+00 0.556 faster 0 5.260799e+05 5.260826e+05 2.653
5 irregular 3 28 228 114 3 0.481 slower 0 5.260880e+05 5.260921e+05 4.042
5 irregular 3 29 229 115 2 0.245 slower 0 5.260948e+05 5.260975e+05 2.640
5 irregular 3 30 230 4 2 0.464 none 2 5.260994e+05 5.261044e+05 5.000
5 irregular 3 31 231 116 1.500000e+00 0.553 faster 1 5.261056e+05 5.261080e+05 2.459
5 irregular 3 32 232 4 1.500000e+00 0.217 slower 1 5.261097e+05 5.261135e+05 3.823
5 irregular 3 33 233 115 3 0.272 none 2 5.261166e+05 5.261226e+05 6.000
5 irregular 3 34 234 115 1.500000e+00 0.520 none 2 5.261238e+05 5.261283e+05 4.499
5 irregular 3 35 235 5 3 0.507 slower 1 5.261295e+05 5.261335e+05 3.970
5 irregular 3 36 236 5 1.500000e+00 0.336 slower 1 5.261361e+05 5.261385e+05 2.432
5 irregular 3 37 237 6 1.500000e+00 0.141 slower 1 5.261405e+05 5.261428e+05 2.285
5 irregular 3 38 238 6 3 0.588 faster 0 5.261450e+05 5.261491e+05 4.073
5 irregular 3 39 239 115 2 0.584 faster 1 5.261506e+05 5.261533e+05 2.741
5 irregular 3 40 240 6 2 0.376 faster 0 5.261561e+05 5.261588e+05 2.691
5 irregular 3 41 241 115 3 0.350 faster 1 5.261604e+05 5.261637e+05 3.310
5 irregular 3 42 242 115 1.500000e+00 0.524 slower 0 5.261673e+05 5.261701e+05 2.848
5 irregular 3 43 243 4 2.500000e+00 0.366 none 2 5.261718e+05 5.261773e+05 5.500
5 irregular 3 44 244 116 3 0.182 slower 0 5.261781e+05 5.261817e+05 3.587
5 irregular 3 45 245 117 3 0.426 slower 0 5.261837e+05 5.261877e+05 3.998
5 irregular 3 46 246 2 2 0.473 slower 1 5.261895e+05 5.261934e+05 3.995
5 irregular 3 47 247 117 2.500000e+00 0.239 faster 1 5.261958e+05 5.261989e+05 3.095
5 irregular 3 48 248 3 2.500000e+00 0.233 slower 1 5.262011e+05 5.262059e+05 4.833
5 irregular 3 49 249 4 2 0.571 slower 1 5.262088e+05 5.262120e+05 3.221
5 irregular 3 50 250 4 1.500000e+00 0.424 slower 1 5.262179e+05 5.262220e+05 4.137
5 irregular 3 51 251 5 1.500000e+00 0.470 slower 1 5.262239e+05 5.262262e+05 2.304
5 irregular 3 52 252 115 2.500000e+00 0.231 slower 0 5.262278e+05 5.262310e+05 3.191
5 irregular 3 53 253 4 3 0.485 slower 1 5.262329e+05 5.262368e+05 3.934
5 irregular 3 54 254 115 3 0.205 faster 1 5.262383e+05 5.262431e+05 4.818
5 irregular 3 55 255 115 2 0.339 faster 1 5.262447e+05 5.262471e+05 2.461
5 irregular 3 56 256 6 2.500000e+00 0.428 none 2 5.262489e+05 5.262544e+05 5.500
5 irregular 3 57 257 114 1 0.532 faster 1 5.262556e+05 5.262576e+05 2.024
5 irregular 3 58 258 6 2 0.529 faster 0 5.262594e+05 5.262620e+05 2.667
5 irregular 3 59 259 5 3 0.550 slower 1 5.262637e+05 5.262678e+05 4.048
5 irregular 3 60 260 114 2 0.539 slower 0 5.262704e+05 5.262732e+05 2.833
5 irregular 3 61 261 115 2 0.456 faster 1 5.262750e+05 5.262777e+05 2.700
5 irregular 3 62 262 115 2 0.305 faster 1 5.262791e+05 5.262820e+05 2.859
5 irregular 3 63 263 6 2 0.256 faster 0 5.262838e+05 5.262869e+05 3.154
5 irregular 3 64 264 5 2.500000e+00 0.121 faster 0 5.262885e+05 5.262922e+05 3.670
5 irregular 3 65 265 116 1 0.406 faster 1 5.263003e+05 5.263021e+05 1.852
5 irregular 3 66 266 4 1 0.245 faster 0 5.263138e+05 5.263169e+05 3.097
5 irregular 3 67 267 3 1.500000e+00 0.568 slower 1 5.263212e+05 5.263253e+05 4.137
5 irregular 3 68 268 116 2 0.521 slower 0 5.263276e+05 5.263307e+05 3.118
5 irregular 3 69 269 117 2.500000e+00 0.328 none 2 5.263348e+05 5.263403e+05 5.499
5 irregular 3 70 270 117 1.500000e+00 0.318 slower 0 5.263465e+05 5.263488e+05 2.359
5 irregular 3 71 271 118 1 0.330 faster 1 5.263532e+05 5.263552e+05 1.940
5 irregular 3 72 272 2 1.500000e+00 0.410 slower 1 5.263574e+05 5.263614e+05 4.031
5 irregular 3 73 273 117 1 0.481 slower 0 5.263663e+05 5.263682e+05 1.879
5 irregular 3 74 274 2 1 0.559 slower 1 5.263699e+05 5.263727e+05 2.790
5 irregular 3 75 275 118 2 0.194 slower 0 5.263743e+05 5.263770e+05 2.750
5 irregular 3 76 276 119 1 0.139 faster 1 5.263827e+05 5.263848e+05 2.097
5 irregular 3 77 277 2 1 0.525 none 2 5.263890e+05 5.263930e+05 3.999
5 irregular 3 78 278 2 1.500000e+00 0.567 none 2 5.263952e+05 5.263997e+05 4.499
5 irregular 3 79 279 2 2 0.439 none 2 5.264031e+05 5.264081e+05 5.000
5 irregular 3 80 280 118 2.500000e+00 0.325 faster 1 5.264123e+05 5.264156e+05 3.328
5 irregular 3 81 281 118 2 0.300 faster 1 5.264184e+05 5.264212e+05 2.757
5 irregular 3 82 282 117 1.500000e+00 0.255 faster 1 5.264291e+05 5.264314e+05 2.245
5 irregular 3 83 283 117 2.500000e+00 0.346 faster 1 5.264406e+05 5.264438e+05 3.281
5 irregular 3 84 284 4 2.500000e+00 0.600 slower 1 5.264636e+05 5.264671e+05 3.493
5 irregular 3 85 285 4 2.500000e+00 0.502 slower 1 5.264688e+05 5.264730e+05 4.173
5 irregular 3 86 286 5 3 0.316 slower 1 5.264745e+05 5.264783e+05 3.745
5 irregular 3 87 287 5 2 0.594 faster 0 5.264838e+05 5.264867e+05 2.850
5 irregular 3 88 288 116 1 0.331 faster 1 5.264910e+05 5.264926e+05 1.662
5 irregular 3 89 289 115 3 0.457 faster 1 5.264980e+05 5.265018e+05 3.827
5 irregular 3 90 290 115 3 0.205 faster 1 5.265043e+05 5.265081e+05 3.777
5 irregular 3 91 291 114 1 0.190 faster 1 5.265099e+05 5.265115e+05 1.623
5 irregular 3 92 292 114 1.500000e+00 0.405 faster 1 5.265135e+05 5.265156e+05 2.099
5 irregular 3 93 293 7 1 0.540 none 2 5.265209e+05 5.265249e+05 3.999
5 irregular 3 94 294 113 3 0.123 slower 0 5.265305e+05 5.265342e+05 3.705
5 irregular 3 95 295 6 1 0.150 slower 1 5.265380e+05 5.265415e+05 3.450
5 irregular 3 96 296 114 2.500000e+00 0.344 slower 0 5.265433e+05 5.265474e+05 4.036
5 irregular 3 97 297 5 1 0.464 faster 0 5.265518e+05 5.265531e+05 1.286
5 irregular 3 98 298 4 1 0.222 slower 1 5.265548e+05 5.265585e+05 3.684
5 irregular 3 99 299 5 2 0.295 slower 1 5.265595e+05 5.265629e+05 3.420
5 irregular 3 100 300 5 2.500000e+00 0.467 slower 1 5.265690e+05 5.265738e+05 4.848
5 regular 4 1 301 6 2 0.515 faster 0 5.266666e+05 5.266695e+05 2.928
5 regular 4 2 302 5 2 0.462 faster 0 5.266706e+05 5.266733e+05 2.682
5 regular 4 3 303 4 2 0.541 faster 0 5.266745e+05 5.266774e+05 2.886
5 regular 4 4 304 3 2 0.148 slower 1 5.266782e+05 5.266810e+05 2.894
5 regular 4 5 305 117 2 0.589 faster 1 5.266823e+05 5.266850e+05 2.699
5 regular 4 6 306 116 2 0.332 faster 1 5.266865e+05 5.266892e+05 2.661
5 regular 4 7 307 116 2 0.240 faster 1 5.266906e+05 5.266935e+05 2.847
5 regular 4 8 308 5 2 0.189 faster 0 5.266949e+05 5.266978e+05 2.880
5 regular 4 9 309 4 2 0.558 faster 0 5.266996e+05 5.267025e+05 2.948
5 regular 4 10 310 3 2 0.483 slower 1 5.267041e+05 5.267078e+05 3.743
5 regular 4 11 311 117 2 0.126 faster 1 5.267094e+05 5.267122e+05 2.773
5 regular 4 12 312 4 2 0.325 faster 0 5.267138e+05 5.267168e+05 3.066
5 regular 4 13 313 3 2 0.231 faster 0 5.267177e+05 5.267210e+05 3.339
5 regular 4 14 314 118 2 0.330 faster 1 5.267220e+05 5.267247e+05 2.676
5 regular 4 15 315 2 2 0.150 faster 0 5.267255e+05 5.267288e+05 3.285
5 regular 4 16 316 1 2 0.437 faster 0 5.267303e+05 5.267349e+05 4.567
5 regular 4 17 317 120 2 0.172 slower 0 5.267357e+05 5.267383e+05 2.616
5 regular 4 18 318 -1 2 0.319 slower 1 5.267405e+05 5.267448e+05 4.307
5 regular 4 19 319 0 2 0.257 slower 1 5.267464e+05 5.267497e+05 3.348
5 regular 4 20 320 0 2 0.388 slower 1 5.267512e+05 5.267556e+05 4.348
5 regular 4 21 321 1 2 0.514 faster 0 5.267573e+05 5.267621e+05 4.818
5 regular 4 22 322 120 2 0.265 faster 1 5.267630e+05 5.267657e+05 2.653
5 regular 4 23 323 0 2 0.113 faster 0 5.267677e+05 5.267714e+05 3.663
5 regular 4 24 324 121 2 0.439 faster 1 5.267729e+05 5.267757e+05 2.798
5 regular 4 25 325 120 2 0.379 faster 1 5.267773e+05 5.267799e+05 2.587
5 regular 4 26 326 120 2 0.341 faster 1 5.267822e+05 5.267848e+05 2.646
5 regular 4 27 327 119 2 0.449 faster 1 5.267871e+05 5.267898e+05 2.689
5 regular 4 28 328 119 2 0.435 faster 1 5.267929e+05 5.267954e+05 2.531
5 regular 4 29 329 2 2 0.106 none 2 5.267963e+05 5.268013e+05 4.999
5 regular 4 30 330 118 2 0.417 faster 1 5.268023e+05 5.268050e+05 2.651
5 regular 4 31 331 2 2 0.534 slower 1 5.268081e+05 5.268125e+05 4.361
5 regular 4 32 332 117 2 0.185 faster 1 5.268151e+05 5.268179e+05 2.777
5 regular 4 33 333 3 2 0.187 slower 1 5.268187e+05 5.268220e+05 3.305
5 regular 4 34 334 4 2 0.285 slower 1 5.268241e+05 5.268269e+05 2.837
5 regular 4 35 335 4 2 0.591 slower 1 5.268288e+05 5.268314e+05 2.650
5 regular 4 36 336 5 2 0.153 slower 1 5.268322e+05 5.268357e+05 3.414
5 regular 4 37 337 115 2 0.499 slower 0 5.268373e+05 5.268405e+05 3.141
5 regular 4 38 338 116 2 0.455 faster 1 5.268423e+05 5.268450e+05 2.635
5 regular 4 39 339 5 2 0.493 faster 0 5.268461e+05 5.268489e+05 2.779
5 regular 4 40 340 4 2 0.520 none 2 5.268507e+05 5.268557e+05 5.000
5 regular 4 41 341 4 2 0.559 slower 1 5.268569e+05 5.268597e+05 2.799
5 regular 4 42 342 116 2 0.247 faster 1 5.268636e+05 5.268663e+05 2.730
5 regular 4 43 343 5 2 0.353 faster 0 5.268703e+05 5.268732e+05 2.938
5 regular 4 44 344 116 2 0.538 faster 1 5.268765e+05 5.268791e+05 2.586
5 regular 4 45 345 4 2 0.376 faster 0 5.268842e+05 5.268877e+05 3.515
5 regular 4 46 346 117 2 0.397 faster 1 5.268896e+05 5.268922e+05 2.573
5 regular 4 47 347 4 2 0.381 faster 0 5.268936e+05 5.268962e+05 2.635
5 regular 4 48 348 3 2 0.255 faster 0 5.268984e+05 5.269013e+05 2.852
5 regular 4 49 349 118 2 0.270 slower 0 5.269028e+05 5.269053e+05 2.494
5 regular 4 50 350 119 2 0.544 none 2 5.269099e+05 5.269149e+05 4.999
5 regular 4 51 351 1 2 0.117 none 2 5.269157e+05 5.269207e+05 4.999
5 regular 4 52 352 1 2 0.262 faster 0 5.269223e+05 5.269256e+05 3.250
5 regular 4 53 353 0 2 0.286 slower 1 5.269272e+05 5.269302e+05 2.929
5 regular 4 54 354 0 2 0.414 slower 1 5.269321e+05 5.269346e+05 2.496
5 regular 4 55 355 119 2 0.531 faster 1 5.269357e+05 5.269384e+05 2.721
5 regular 4 56 356 119 2 0.352 faster 1 5.269400e+05 5.269427e+05 2.757
5 regular 4 57 357 118 2 0.437 faster 1 5.269457e+05 5.269483e+05 2.574
5 regular 4 58 358 118 2 0.536 faster 1 5.269500e+05 5.269529e+05 2.901
5 regular 4 59 359 3 2 0.517 faster 0 5.269552e+05 5.269596e+05 4.390
5 regular 4 60 360 118 2 0.500 faster 1 5.269617e+05 5.269643e+05 2.630
5 regular 4 61 361 118 2 0.566 faster 1 5.269663e+05 5.269690e+05 2.716
5 regular 4 62 362 117 2 0.439 faster 1 5.269707e+05 5.269733e+05 2.665
5 regular 4 63 363 3 2 0.140 none 2 5.269746e+05 5.269796e+05 4.999
5 regular 4 64 364 3 2 0.253 none 2 5.269811e+05 5.269861e+05 5.000
5 regular 4 65 365 3 2 0.175 none 2 5.269869e+05 5.269919e+05 5.000
5 regular 4 66 366 117 2 0.128 faster 1 5.269929e+05 5.269954e+05 2.556
5 regular 4 67 367 116 2 0.152 faster 1 5.269985e+05 5.270013e+05 2.836
5 regular 4 68 368 116 2 0.274 faster 1 5.270040e+05 5.270067e+05 2.671
5 regular 4 69 369 115 2 0.508 slower 0 5.270101e+05 5.270129e+05 2.780
5 regular 4 70 370 4 2 0.299 none 2 5.270156e+05 5.270206e+05 4.999
5 regular 4 71 371 4 2 0.331 none 2 5.270225e+05 5.270275e+05 4.999
5 regular 4 72 372 4 2 0.471 slower 1 5.270293e+05 5.270321e+05 2.742
5 regular 4 73 373 116 2 0.529 slower 0 5.270352e+05 5.270379e+05 2.715
5 regular 4 74 374 117 2 0.119 faster 1 5.270435e+05 5.270466e+05 3.042
5 regular 4 75 375 116 2 0.341 faster 1 5.270507e+05 5.270540e+05 3.317
5 regular 4 76 376 116 2 0.193 faster 1 5.270554e+05 5.270580e+05 2.609
5 regular 4 77 377 115 2 0.131 faster 1 5.270628e+05 5.270655e+05 2.760
5 regular 4 78 378 115 2 0.149 faster 1 5.270669e+05 5.270697e+05 2.823
5 regular 4 79 379 6 2 0.126 faster 0 5.270710e+05 5.270743e+05 3.305
5 regular 4 80 380 5 2 0.392 slower 1 5.270769e+05 5.270799e+05 2.941
5 regular 4 81 381 115 2 0.422 faster 1 5.270833e+05 5.270866e+05 3.301
5 regular 4 82 382 114 2 0.294 faster 1 5.270881e+05 5.270908e+05 2.661
5 regular 4 83 383 6 2 0.362 slower 1 5.270922e+05 5.270953e+05 3.045
5 regular 4 84 384 113 2 0.280 slower 0 5.270968e+05 5.270999e+05 3.086
5 regular 4 85 385 114 2 0.462 slower 0 5.271016e+05 5.271044e+05 2.762
5 regular 4 86 386 5 2 0.410 none 2 5.271106e+05 5.271156e+05 5.000
5 regular 4 87 387 115 2 0.236 slower 0 5.271166e+05 5.271197e+05 3.074
5 regular 4 88 388 116 2 0.461 faster 1 5.271238e+05 5.271268e+05 3.035
5 regular 4 89 389 116 2 0.347 faster 1 5.271284e+05 5.271311e+05 2.717
5 regular 4 90 390 115 2 0.417 none 2 5.271327e+05 5.271377e+05 4.999
5 regular 4 91 391 5 2 0.436 slower 1 5.271406e+05 5.271439e+05 3.303
5 regular 4 92 392 5 2 0.362 slower 1 5.271483e+05 5.271511e+05 2.831
5 regular 4 93 393 114 2 0.598 slower 0 5.271543e+05 5.271568e+05 2.526
5 regular 4 94 394 115 2 0.140 faster 1 5.271618e+05 5.271645e+05 2.737
5 regular 4 95 395 5 2 0.463 faster 0 5.271672e+05 5.271700e+05 2.859
5 regular 4 96 396 4 2 0.284 none 2 5.271740e+05 5.271790e+05 4.999
5 regular 4 97 397 116 2 0.150 slower 0 5.271798e+05 5.271826e+05 2.881
5 regular 4 98 398 117 2 0.332 slower 0 5.271854e+05 5.271882e+05 2.790
5 regular 4 99 399 2 2 0.421 slower 1 5.271906e+05 5.271944e+05 3.740
5 regular 4 100 400 3 2 0.479 faster 0 5.271961e+05 5.271997e+05 3.543
5 irregular 5 1 401 2 1 0.291 none 2 5.272504e+05 5.272544e+05 4.000
5 irregular 5 2 402 118 1 0.286 faster 1 5.272553e+05 5.272571e+05 1.812
5 irregular 5 3 403 2 2.500000e+00 0.539 none 2 5.272583e+05 5.272638e+05 5.499
5 irregular 5 4 404 2 2 0.192 faster 0 5.272647e+05 5.272694e+05 4.747
5 irregular 5 5 405 1 1 0.522 slower 1 5.272712e+05 5.272750e+05 3.793
5 irregular 5 6 406 118 1 0.598 faster 1 5.272767e+05 5.272786e+05 1.825
5 irregular 5 7 407 2 2 0.233 none 2 5.272795e+05 5.272845e+05 4.999
5 irregular 5 8 408 118 3 0.547 slower 0 5.272857e+05 5.272888e+05 3.118
5 irregular 5 9 409 119 3 0.149 none 2 5.272896e+05 5.272956e+05 6.000
5 irregular 5 10 410 119 3 0.402 faster 1 5.272966e+05 5.273003e+05 3.708
5 irregular 5 11 411 2 1 0.345 none 2 5.273036e+05 5.273076e+05 4.000
5 irregular 5 12 412 2 2.500000e+00 0.424 faster 0 5.273093e+05 5.273129e+05 3.615
5 irregular 5 13 413 119 1 0.366 faster 1 5.273145e+05 5.273163e+05 1.772
5 irregular 5 14 414 1 3 0.456 none 2 5.273180e+05 5.273240e+05 5.999
5 irregular 5 15 415 1 1.500000e+00 0.508 none 2 5.273251e+05 5.273296e+05 4.500
5 irregular 5 16 416 119 2.500000e+00 0.310 faster 1 5.273306e+05 5.273353e+05 4.648
5 irregular 5 17 417 2 3 0.260 none 2 5.273365e+05 5.273425e+05 5.999
5 irregular 5 18 418 118 3 0.586 slower 0 5.273437e+05 5.273478e+05 4.025
5 irregular 5 19 419 119 1.500000e+00 0.362 faster 1 5.273494e+05 5.273527e+05 3.321
5 irregular 5 20 420 119 1 0.594 faster 1 5.273544e+05 5.273560e+05 1.652
5 irregular 5 21 421 118 2 0.391 faster 1 5.273577e+05 5.273603e+05 2.610
5 irregular 5 22 422 2 2 0.339 none 2 5.273618e+05 5.273668e+05 4.999
5 irregular 5 23 423 118 2.500000e+00 0.495 slower 0 5.273680e+05 5.273717e+05 3.674
5 irregular 5 24 424 119 1 0.479 faster 1 5.273751e+05 5.273768e+05 1.688
5 irregular 5 25 425 118 1.500000e+00 0.471 faster 1 5.273810e+05 5.273838e+05 2.798
5 irregular 5 26 426 118 2.500000e+00 0.533 slower 0 5.273917e+05 5.273949e+05 3.236
5 irregular 5 27 427 119 2 0.380 faster 1 5.273979e+05 5.274005e+05 2.650
5 irregular 5 28 428 2 2 0.239 slower 1 5.274019e+05 5.274054e+05 3.559
5 irregular 5 29 429 118 1.500000e+00 0.521 faster 1 5.274088e+05 5.274109e+05 2.095
5 irregular 5 30 430 3 3 0.260 slower 1 5.274127e+05 5.274161e+05 3.428
5 irregular 5 31 431 117 2.500000e+00 0.275 faster 1 5.274177e+05 5.274226e+05 4.874
5 irregular 5 32 432 4 3 0.564 faster 0 5.274288e+05 5.274326e+05 3.784
5 irregular 5 33 433 3 2.500000e+00 0.181 slower 1 5.274345e+05 5.274378e+05 3.327
5 irregular 5 34 434 117 1.500000e+00 0.553 faster 1 5.274399e+05 5.274421e+05 2.243
5 irregular 5 35 435 4 2.500000e+00 0.283 slower 1 5.274445e+05 5.274479e+05 3.325
5 irregular 5 36 436 116 2 0.275 slower 0 5.274493e+05 5.274521e+05 2.763
5 irregular 5 37 437 117 2.500000e+00 0.107 slower 0 5.274536e+05 5.274572e+05 3.575
5 irregular 5 38 438 2 3 0.407 slower 1 5.274600e+05 5.274641e+05 4.039
5 irregular 5 39 439 3 1.500000e+00 0.290 slower 1 5.274656e+05 5.274698e+05 4.246
5 irregular 5 40 440 3 1 0.443 none 2 5.274718e+05 5.274758e+05 4.000
5 irregular 5 41 441 117 3 0.114 slower 0 5.274775e+05 5.274819e+05 4.438
5 irregular 5 42 442 2 1.500000e+00 0.447 slower 1 5.274905e+05 5.274948e+05 4.273
5 irregular 5 43 443 3 1 0.580 none 2 5.274984e+05 5.275024e+05 3.999
5 irregular 5 44 444 117 3 0.274 slower 0 5.275057e+05 5.275097e+05 4.023
5 irregular 5 45 445 118 3 0.408 faster 1 5.275124e+05 5.275163e+05 3.909
5 irregular 5 46 446 2 1.500000e+00 0.108 none 2 5.275187e+05 5.275232e+05 4.499
5 irregular 5 47 447 2 1 0.103 faster 0 5.275240e+05 5.275256e+05 1.618
5 irregular 5 48 448 119 2 0.505 faster 1 5.275275e+05 5.275307e+05 3.171
5 irregular 5 49 449 118 1 0.132 faster 1 5.275322e+05 5.275337e+05 1.571
5 irregular 5 50 450 118 3 0.171 slower 0 5.275353e+05 5.275390e+05 3.687
5 irregular 5 51 451 119 1.500000e+00 0.247 slower 0 5.275416e+05 5.275441e+05 2.549
5 irregular 5 52 452 120 2.500000e+00 0.123 slower 0 5.275474e+05 5.275506e+05 3.168
5 irregular 5 53 453 121 2.500000e+00 0.554 slower 0 5.275539e+05 5.275575e+05 3.593
5 irregular 5 54 454 122 1.500000e+00 0.251 faster 1 5.275589e+05 5.275611e+05 2.219
5 irregular 5 55 455 -1 1.500000e+00 0.542 faster 0 5.275640e+05 5.275674e+05 3.438
5 irregular 5 56 456 122 1.500000e+00 0.125 slower 0 5.275712e+05 5.275735e+05 2.275
5 irregular 5 57 457 -3 2.500000e+00 0.308 none 2 5.275764e+05 5.275819e+05 5.499
5 irregular 5 58 458 -3 3 0.252 slower 1 5.275850e+05 5.275908e+05 5.774
5 irregular 5 59 459 -3 2 0.377 none 2 5.275953e+05 5.276003e+05 5.000
5 irregular 5 60 460 123 1 0.312 faster 1 5.276037e+05 5.276055e+05 1.769
5 irregular 5 61 461 122 2 0.564 faster 1 5.276078e+05 5.276105e+05 2.685
5 irregular 5 62 462 -2 2.500000e+00 0.292 slower 1 5.276120e+05 5.276167e+05 4.695
5 irregular 5 63 463 121 2.500000e+00 0.211 faster 1 5.276181e+05 5.276214e+05 3.293
5 irregular 5 64 464 121 2 0.517 faster 1 5.276260e+05 5.276287e+05 2.699
5 irregular 5 65 465 120 2 0.174 faster 1 5.276483e+05 5.276515e+05 3.242
5 irregular 5 66 466 0 1.500000e+00 0.587 none 2 5.276590e+05 5.276635e+05 4.499
5 irregular 5 67 467 0 3 0.185 slower 1 5.276691e+05 5.276733e+05 4.154
5 irregular 5 68 468 119 1 0.116 faster 1 5.276902e+05 5.276919e+05 1.621
5 irregular 5 69 469 119 2.500000e+00 0.413 slower 0 5.276930e+05 5.276962e+05 3.213
5 irregular 5 70 470 120 2 0.479 faster 1 5.276983e+05 5.277008e+05 2.573
5 irregular 5 71 471 1 1.500000e+00 0.128 none 2 5.277016e+05 5.277061e+05 4.499
5 irregular 5 72 472 1 2 0.360 faster 0 5.277148e+05 5.277174e+05 2.566
5 irregular 5 73 473 0 2 0.220 faster 0 5.277199e+05 5.277238e+05 3.905
5 irregular 5 74 474 -1 2 0.502 slower 1 5.277260e+05 5.277306e+05 4.592
5 irregular 5 75 475 121 1.500000e+00 0.221 slower 0 5.277345e+05 5.277367e+05 2.211
5 irregular 5 76 476 -2 1.500000e+00 0.208 slower 1 5.277384e+05 5.277427e+05 4.288
5 irregular 5 77 477 -1 1 0.133 slower 1 5.277454e+05 5.277490e+05 3.574
5 irregular 5 78 478 121 2.500000e+00 0.362 faster 1 5.277533e+05 5.277566e+05 3.344
5 irregular 5 79 479 0 2.500000e+00 0.141 slower 1 5.277581e+05 5.277630e+05 4.914
5 irregular 5 80 480 120 1.500000e+00 0.103 none 2 5.277644e+05 5.277689e+05 4.499
5 irregular 5 81 481 0 3 0.267 slower 1 5.277813e+05 5.277865e+05 5.162
5 irregular 5 82 482 1 2.500000e+00 0.246 slower 1 5.278029e+05 5.278083e+05 5.315
5 irregular 5 83 483 119 1 0.451 faster 1 5.278101e+05 5.278117e+05 1.591
5 irregular 5 84 484 2 1 0.303 none 2 5.278134e+05 5.278174e+05 3.999
5 irregular 5 85 485 2 2.500000e+00 0.288 none 2 5.278183e+05 5.278238e+05 5.500
5 irregular 5 86 486 118 2 0.253 faster 1 5.278250e+05 5.278283e+05 3.307
5 irregular 5 87 487 118 3 0.597 slower 0 5.278301e+05 5.278338e+05 3.694
5 irregular 5 88 488 1 2 0.209 none 2 5.278363e+05 5.278413e+05 4.999
5 irregular 5 89 489 1 3 0.358 slower 1 5.278580e+05 5.278621e+05 4.133
5 irregular 5 90 490 2 2.500000e+00 0.167 none 2 5.278645e+05 5.278700e+05 5.499
5 irregular 5 91 491 2 1 0.201 none 2 5.278708e+05 5.278748e+05 3.999
5 irregular 5 92 492 118 1 0.354 none 2 5.278758e+05 5.278798e+05 4.000
5 irregular 5 93 493 118 2 0.359 slower 0 5.278809e+05 5.278842e+05 3.381
5 irregular 5 94 494 1 1 0.239 none 2 5.278857e+05 5.278897e+05 4.000
5 irregular 5 95 495 1 1.500000e+00 0.221 faster 0 5.278906e+05 5.278942e+05 3.565
5 irregular 5 96 496 0 2 0.267 none 2 5.279004e+05 5.279054e+05 5.000
5 irregular 5 97 497 120 3 0.269 slower 0 5.279098e+05 5.279136e+05 3.862
5 irregular 5 98 498 -1 1.500000e+00 0.270 none 2 5.279153e+05 5.279198e+05 4.499
5 irregular 5 99 499 121 1.500000e+00 0.159 faster 1 5.279221e+05 5.279243e+05 2.204
5 irregular 5 100 500 -1 3 0.327 slower 1 5.279271e+05 5.279314e+05 4.300
5 regular 6 1 501 36 3 0.323 slower 1 1.464100e+06 1.464104e+06 4.285
5 regular 6 2 502 84 3 0.111 slower 0 1.464105e+06 1.464109e+06 3.742
5 regular 6 3 503 86 3 0.256 slower 0 1.464111e+06 1.464115e+06 4.328
5 regular 6 4 504 32 3 0.317 faster 0 1.464116e+06 1.464120e+06 3.942
5 regular 6 5 505 90 3 0.334 faster 1 1.464122e+06 1.464126e+06 3.830
5 regular 6 6 506 88 3 0.250 faster 1 1.464127e+06 1.464131e+06 3.797
5 regular 6 7 507 88 3 0.499 slower 0 1.464133e+06 1.464137e+06 3.717
5 regular 6 8 508 30 3 0.230 faster 0 1.464138e+06 1.464142e+06 3.992
5 regular 6 9 509 30 3 0.341 slower 1 1.464144e+06 1.464148e+06 4.259
5 regular 6 10 510 32 3 0.181 faster 0 1.464149e+06 1.464153e+06 3.943
5 regular 6 11 511 30 3 0.568 slower 1 1.464155e+06 1.464160e+06 5.002
5 regular 6 12 512 30 3 0.109 slower 1 1.464162e+06 1.464166e+06 3.782
5 regular 6 13 513 31 3 0.153 slower 1 1.464167e+06 1.464171e+06 3.741
5 regular 6 14 514 31 3 0.199 slower 1 1.464172e+06 1.464176e+06 3.865
5 regular 6 15 515 88 3 0.240 slower 0 1.464177e+06 1.464181e+06 3.999
5 regular 6 16 516 89 3 0.146 faster 1 1.464182e+06 1.464186e+06 4.171
5 regular 6 17 517 31 3 0.583 faster 0 1.464188e+06 1.464192e+06 3.663
5 regular 6 18 518 90 3 0.529 faster 1 1.464194e+06 1.464197e+06 3.698
5 regular 6 19 519 31 3 0.143 faster 0 1.464199e+06 1.464203e+06 3.688
5 regular 6 20 520 30 3 0.355 slower 1 1.464205e+06 1.464209e+06 3.919
5 regular 6 21 521 30 3 0.464 faster 0 1.464210e+06 1.464215e+06 4.411
5 regular 6 22 522 90 3 0.147 faster 1 1.464216e+06 1.464220e+06 3.813
5 regular 6 23 523 31 3 0.580 faster 0 1.464222e+06 1.464225e+06 3.608
5 regular 6 24 524 90 3 0.475 slower 0 1.464227e+06 1.464231e+06 4.415
5 regular 6 25 525 30 3 0.504 slower 1 1.464233e+06 1.464237e+06 3.579
5 regular 6 26 526 30 3 0.275 slower 1 1.464238e+06 1.464242e+06 3.447
5 regular 6 27 527 89 3 0.323 slower 0 1.464244e+06 1.464248e+06 3.762
5 regular 6 28 528 30 3 0.271 faster 0 1.464252e+06 1.464256e+06 4.060
5 regular 6 29 529 30 3 0.426 slower 1 1.464258e+06 1.464262e+06 3.746
5 regular 6 30 530 90 3 0.522 faster 1 1.464263e+06 1.464267e+06 4.048
5 regular 6 31 531 31 3 0.377 faster 0 1.464269e+06 1.464273e+06 3.816
5 regular 6 32 532 90 3 0.274 faster 1 1.464274e+06 1.464278e+06 3.671
5 regular 6 33 533 30 3 0.251 slower 1 1.464279e+06 1.464283e+06 3.785
5 regular 6 34 534 31 3 0.400 slower 1 1.464285e+06 1.464289e+06 4.126
5 regular 6 35 535 31 3 0.339 faster 0 1.464291e+06 1.464295e+06 3.932
5 regular 6 36 536 90 3 0.511 faster 1 1.464297e+06 1.464301e+06 3.918
5 regular 6 37 537 31 3 0.581 faster 0 1.464303e+06 1.464307e+06 4.180
5 regular 6 38 538 90 3 0.524 slower 0 1.464309e+06 1.464313e+06 4.036
5 regular 6 39 539 90 3 0.168 slower 0 1.464314e+06 1.464318e+06 3.800
5 regular 6 40 540 90 3 0.146 slower 0 1.464320e+06 1.464324e+06 3.992
5 regular 6 41 541 90 3 0.434 slower 0 1.464326e+06 1.464330e+06 4.434
5 regular 6 42 542 90 3 0.267 faster 1 1.464333e+06 1.464337e+06 3.741
5 regular 6 43 543 30 3 0.217 faster 0 1.464339e+06 1.464342e+06 3.701
5 regular 6 44 544 30 3 0.198 faster 0 1.464344e+06 1.464348e+06 3.604
5 regular 6 45 545 90 3 0.575 faster 1 1.464350e+06 1.464354e+06 3.945
5 regular 6 46 546 31 3 0.207 slower 1 1.464356e+06 1.464360e+06 4.080
5 regular 6 47 547 89 3 0.106 slower 0 1.464361e+06 1.464365e+06 4.119
5 regular 6 48 548 90 3 0.146 slower 0 1.464368e+06 1.464372e+06 4.373
5 regular 6 49 549 90 3 0.584 faster 1 1.464380e+06 1.464384e+06 4.269
5 regular 6 50 550 89 3 0.316 slower 0 1.464386e+06 1.464390e+06 3.986
5 regular 6 51 551 90 3 0.391 faster 1 1.464391e+06 1.464395e+06 4.189
5 regular 6 52 552 90 3 0.119 slower 0 1.464397e+06 1.464400e+06 3.588
5 regular 6 53 553 30 3 0.596 slower 1 1.464403e+06 1.464407e+06 3.985
5 regular 6 54 554 31 3 0.441 faster 0 1.464410e+06 1.464414e+06 3.900
5 regular 6 55 555 30 3 0.161 faster 0 1.464415e+06 1.464419e+06 4.272
5 regular 6 56 556 90 3 0.515 slower 0 1.464421e+06 1.464425e+06 3.919
5 regular 6 57 557 90 3 0.300 faster 1 1.464426e+06 1.464430e+06 3.948
5 regular 6 58 558 90 3 0.595 faster 1 1.464432e+06 1.464436e+06 3.728
5 regular 6 59 559 31 3 0.566 faster 0 1.464438e+06 1.464442e+06 3.917
5 regular 6 60 560 30 3 0.344 slower 1 1.464444e+06 1.464448e+06 4.322
5 regular 6 61 561 90 3 0.585 slower 0 1.464455e+06 1.464460e+06 4.477
5 regular 6 62 562 30 3 0.267 faster 0 1.464461e+06 1.464465e+06 3.867
5 regular 6 63 563 90 3 0.241 faster 1 1.464466e+06 1.464470e+06 3.890
5 regular 6 64 564 31 3 0.505 faster 0 1.464472e+06 1.464476e+06 4.052
5 regular 6 65 565 30 3 0.219 faster 0 1.464477e+06 1.464481e+06 3.718
5 regular 6 66 566 30 3 0.297 faster 0 1.464483e+06 1.464486e+06 3.714
5 regular 6 67 567 30 3 0.139 faster 0 1.464488e+06 1.464492e+06 4.615
5 regular 6 68 568 30 3 0.186 slower 1 1.464494e+06 1.464499e+06 4.721
5 regular 6 69 569 90 3 0.118 slower 0 1.464501e+06 1.464505e+06 4.468
5 regular 6 70 570 30 3 0.326 slower 1 1.464507e+06 1.464510e+06 3.699
5 regular 6 71 571 89 3 0.336 faster 1 1.464512e+06 1.464516e+06 3.672
5 regular 6 72 572 89 3 0.124 slower 0 1.464517e+06 1.464522e+06 4.917
5 regular 6 73 573 90 3 0.161 faster 1 1.464524e+06 1.464528e+06 4.298
5 regular 6 74 574 31 3 0.287 slower 1 1.464530e+06 1.464534e+06 4.211
5 regular 6 75 575 89 3 0.584 faster 1 1.464536e+06 1.464541e+06 4.549
5 regular 6 76 576 88 3 0.401 faster 1 1.464543e+06 1.464546e+06 3.707
5 regular 6 77 577 32 3 0.484 faster 0 1.464548e+06 1.464552e+06 3.788
5 regular 6 78 578 89 3 0.161 faster 1 1.464554e+06 1.464558e+06 3.923
5 regular 6 79 579 32 3 0.131 faster 0 1.464559e+06 1.464563e+06 3.930
5 regular 6 80 580 31 3 0.580 faster 0 1.464565e+06 1.464569e+06 3.815
5 regular 6 81 581 30 3 0.381 slower 1 1.464576e+06 1.464580e+06 3.797
5 regular 6 82 582 90 3 0.311 slower 0 1.464592e+06 1.464596e+06 4.465
5 regular 6 83 583 30 3 0.146 faster 0 1.464598e+06 1.464602e+06 3.922
5 regular 6 84 584 30 3 0.525 slower 1 1.464612e+06 1.464616e+06 3.986
5 regular 6 85 585 31 3 0.239 faster 0 1.464618e+06 1.464622e+06 4.334
5 regular 6 86 586 90 3 0.576 faster 1 1.464624e+06 1.464628e+06 3.943
5 regular 6 87 587 90 3 0.117 faster 1 1.464630e+06 1.464634e+06 3.694
5 regular 6 88 588 31 3 0.533 faster 0 1.464636e+06 1.464640e+06 4.029
5 regular 6 89 589 90 3 0.517 faster 1 1.464641e+06 1.464646e+06 4.081
5 regular 6 90 590 90 3 0.263 faster 1 1.464652e+06 1.464657e+06 5.055
5 regular 6 91 591 89 3 0.209 faster 1 1.464658e+06 1.464663e+06 4.594
5 regular 6 92 592 31 3 0.526 faster 0 1.464665e+06 1.464668e+06 3.859
5 regular 6 93 593 30 3 0.318 slower 1 1.464679e+06 1.464683e+06 4.319
5 regular 6 94 594 89 3 0.217 slower 0 1.464685e+06 1.464688e+06 3.736
5 regular 6 95 595 90 3 0.389 slower 0 1.464689e+06 1.464693e+06 3.802
5 regular 6 96 596 30 3 0.292 slower 1 1.464695e+06 1.464699e+06 4.122
5 regular 6 97 597 90 3 0.600 faster 1 1.464702e+06 1.464707e+06 4.340
5 regular 6 98 598 89 3 0.227 slower 0 1.464709e+06 1.464713e+06 4.159
5 regular 6 99 599 90 3 0.439 slower 0 1.464715e+06 1.464718e+06 3.978
5 regular 6 100 600 90 3 0.358 faster 1 1.464721e+06 1.464725e+06 3.655
5 irregular 7 1 601 30 2.500000e+00 0.573 faster 0 1.464758e+06 1.464762e+06 3.579
5 irregular 7 2 602 30 2 0.202 faster 0 1.464763e+06 1.464766e+06 2.805
5 irregular 7 3 603 30 2.500000e+00 0.450 faster 0 1.464768e+06 1.464771e+06 3.145
5 irregular 7 4 604 30 2.500000e+00 0.326 faster 0 1.464772e+06 1.464776e+06 3.222
5 irregular 7 5 605 90 1 0.368 faster 1 1.464778e+06 1.464779e+06 1.797
5 irregular 7 6 606 31 2.500000e+00 0.258 slower 1 1.464781e+06 1.464784e+06 3.075
5 irregular 7 7 607 89 2.500000e+00 0.204 slower 0 1.464786e+06 1.464789e+06 3.288
5 irregular 7 8 608 90 2.500000e+00 0.209 slower 0 1.464791e+06 1.464794e+06 3.366
5 irregular 7 9 609 90 2 0.471 faster 1 1.464796e+06 1.464800e+06 3.531
5 irregular 7 10 610 31 1.500000e+00 0.150 faster 0 1.464801e+06 1.464804e+06 2.208
5 irregular 7 11 611 90 1.500000e+00 0.262 faster 1 1.464805e+06 1.464807e+06 2.315
5 irregular 7 12 612 90 1 0.321 faster 1 1.464809e+06 1.464811e+06 1.809
5 irregular 7 13 613 89 2 0.271 slower 0 1.464813e+06 1.464816e+06 3.158
5 irregular 7 14 614 30 3 0.442 faster 0 1.464818e+06 1.464823e+06 5.067
5 irregular 7 15 615 30 2 0.413 faster 0 1.464825e+06 1.464828e+06 3.033
5 irregular 7 16 616 90 2 0.474 faster 1 1.464829e+06 1.464832e+06 2.745
5 irregular 7 17 617 30 3 0.553 slower 1 1.464841e+06 1.464845e+06 4.265
5 irregular 7 18 618 89 1 0.586 faster 1 1.464847e+06 1.464849e+06 1.602
5 irregular 7 19 619 31 3 0.373 slower 1 1.464850e+06 1.464855e+06 4.098
5 irregular 7 20 620 32 1.500000e+00 0.384 faster 0 1.464856e+06 1.464859e+06 2.382
5 irregular 7 21 621 31 1 0.139 faster 0 1.464860e+06 1.464862e+06 1.688
5 irregular 7 22 622 90 3 0.373 faster 1 1.464863e+06 1.464867e+06 3.621
5 irregular 7 23 623 30 2.500000e+00 0.568 slower 1 1.464871e+06 1.464875e+06 3.437
5 irregular 7 24 624 31 1.500000e+00 0.338 slower 1 1.464877e+06 1.464879e+06 2.166
5 irregular 7 25 625 89 2.500000e+00 0.245 faster 1 1.464880e+06 1.464884e+06 3.866
5 irregular 7 26 626 88 3 0.143 slower 0 1.464886e+06 1.464890e+06 3.895
5 irregular 7 27 627 89 3 0.477 slower 0 1.464892e+06 1.464896e+06 3.419
5 irregular 7 28 628 30 1.500000e+00 0.268 slower 1 1.464903e+06 1.464906e+06 3.148
5 irregular 7 29 629 90 1.500000e+00 0.436 slower 0 1.464908e+06 1.464910e+06 2.735
5 irregular 7 30 630 90 1.500000e+00 0.272 faster 1 1.464912e+06 1.464914e+06 2.263
5 irregular 7 31 631 89 3 0.172 slower 0 1.464916e+06 1.464920e+06 3.835
5 irregular 7 32 632 90 1 0.251 faster 1 1.464925e+06 1.464927e+06 1.764
5 irregular 7 33 633 30 1 0.108 faster 0 1.464928e+06 1.464930e+06 1.532
5 irregular 7 34 634 90 1.500000e+00 0.335 slower 0 1.464931e+06 1.464935e+06 3.225
5 irregular 7 35 635 90 1.500000e+00 0.296 faster 1 1.464936e+06 1.464938e+06 2.243
5 irregular 7 36 636 89 1.500000e+00 0.402 slower 0 1.464941e+06 1.464943e+06 2.753
5 irregular 7 37 637 90 3 0.363 slower 0 1.464945e+06 1.464949e+06 3.673
5 irregular 7 38 638 30 1 0.302 faster 0 1.464950e+06 1.464952e+06 1.644
5 irregular 7 39 639 90 2.500000e+00 0.119 slower 0 1.464954e+06 1.464957e+06 2.907
5 irregular 7 40 640 30 1.500000e+00 0.156 faster 0 1.464958e+06 1.464961e+06 2.203
5 irregular 7 41 641 90 3 0.292 faster 1 1.464969e+06 1.464974e+06 4.355
5 irregular 7 42 642 30 2 0.274 faster 0 1.464975e+06 1.464978e+06 3.028
5 irregular 7 43 643 30 3 0.496 faster 0 1.464980e+06 1.464985e+06 4.711
5 irregular 7 44 644 30 3 0.321 faster 0 1.464987e+06 1.464992e+06 5.068
5 irregular 7 45 645 30 1.500000e+00 0.246 faster 0 1.464994e+06 1.464998e+06 3.684
5 irregular 7 46 646 30 1.500000e+00 0.512 faster 0 1.465000e+06 1.465003e+06 2.615
5 irregular 7 47 647 90 1 0.448 faster 1 1.465006e+06 1.465008e+06 2.698
5 irregular 7 48 648 89 2.500000e+00 0.126 faster 1 1.465014e+06 1.465018e+06 3.872
5 irregular 7 49 649 89 2 0.533 faster 1 1.465020e+06 1.465024e+06 3.848
5 irregular 7 50 650 32 2 0.466 faster 0 1.465025e+06 1.465028e+06 3.191
5 irregular 7 51 651 31 1 0.480 faster 0 1.465030e+06 1.465032e+06 2.088
5 irregular 7 52 652 90 1.500000e+00 0.369 faster 1 1.465034e+06 1.465037e+06 2.878
5 irregular 7 53 653 30 1 0.426 faster 0 1.465038e+06 1.465040e+06 2.054
5 irregular 7 54 654 90 1 0.496 faster 1 1.465042e+06 1.465044e+06 1.788
5 irregular 7 55 655 31 1 0.562 faster 0 1.465046e+06 1.465048e+06 1.935
5 irregular 7 56 656 90 2 0.553 slower 0 1.465049e+06 1.465052e+06 2.589
5 irregular 7 57 657 90 1.500000e+00 0.514 slower 0 1.465063e+06 1.465066e+06 3.046
5 irregular 7 58 658 30 3 0.589 slower 1 1.465068e+06 1.465072e+06 4.037
5 irregular 7 59 659 90 1.500000e+00 0.447 faster 1 1.465074e+06 1.465078e+06 4.166
5 irregular 7 60 660 89 2.500000e+00 0.582 slower 0 1.465080e+06 1.465084e+06 3.458
5 irregular 7 61 661 90 2.500000e+00 0.459 slower 0 1.465085e+06 1.465088e+06 3.180
5 irregular 7 62 662 90 2.500000e+00 0.501 slower 0 1.465091e+06 1.465095e+06 4.687
5 irregular 7 63 663 90 1 0.416 faster 1 1.465100e+06 1.465102e+06 1.708
5 irregular 7 64 664 30 1.500000e+00 0.273 faster 0 1.465108e+06 1.465110e+06 2.385
5 irregular 7 65 665 90 2 0.346 faster 1 1.465112e+06 1.465115e+06 2.989
5 irregular 7 66 666 31 2 0.180 faster 0 1.465117e+06 1.465120e+06 2.976
5 irregular 7 67 667 30 2 0.329 faster 0 1.465122e+06 1.465125e+06 2.809
5 irregular 7 68 668 30 3 0.187 faster 0 1.465126e+06 1.465130e+06 3.891
5 irregular 7 69 669 90 2 0.287 slower 0 1.465132e+06 1.465135e+06 2.994
5 irregular 7 70 670 30 3 0.293 slower 1 1.465139e+06 1.465143e+06 3.706
5 irregular 7 71 671 90 2.500000e+00 0.406 slower 0 1.465145e+06 1.465148e+06 3.341
5 irregular 7 72 672 90 2.500000e+00 0.102 slower 0 1.465150e+06 1.465153e+06 3.277
5 irregular 7 73 673 90 3 0.382 slower 0 1.465155e+06 1.465158e+06 3.544
5 irregular 7 74 674 30 2 0.276 slower 1 1.465165e+06 1.465168e+06 2.802
5 irregular 7 75 675 31 2 0.446 slower 1 1.465169e+06 1.465173e+06 3.179
5 irregular 7 76 676 31 2.500000e+00 0.235 faster 0 1.465174e+06 1.465178e+06 3.568
5 irregular 7 77 677 90 1 0.238 faster 1 1.465179e+06 1.465181e+06 1.651
5 irregular 7 78 678 31 2 0.383 faster 0 1.465183e+06 1.465186e+06 2.518
5 irregular 7 79 679 90 2 0.521 faster 1 1.465192e+06 1.465195e+06 2.811
5 irregular 7 80 680 90 2 0.487 faster 1 1.465196e+06 1.465199e+06 2.557
5 irregular 7 81 681 31 1 0.364 faster 0 1.465211e+06 1.465213e+06 1.743
5 irregular 7 82 682 90 3 0.498 faster 1 1.465221e+06 1.465225e+06 4.493
5 irregular 7 83 683 30 1.500000e+00 0.521 faster 0 1.465227e+06 1.465230e+06 2.868
5 irregular 7 84 684 30 3 0.598 slower 1 1.465232e+06 1.465236e+06 4.423
5 irregular 7 85 685 31 2.500000e+00 0.368 slower 1 1.465238e+06 1.465241e+06 3.397
5 irregular 7 86 686 89 1 0.418 faster 1 1.465243e+06 1.465245e+06 2.318
5 irregular 7 87 687 88 1 0.541 faster 1 1.465250e+06 1.465252e+06 1.769
5 irregular 7 88 688 32 1 0.118 faster 0 1.465253e+06 1.465255e+06 1.770
5 irregular 7 89 689 31 2 0.438 faster 0 1.465257e+06 1.465260e+06 3.047
5 irregular 7 90 690 30 2.500000e+00 0.129 slower 1 1.465268e+06 1.465271e+06 3.379
5 irregular 7 91 691 89 1.500000e+00 0.143 faster 1 1.465273e+06 1.465276e+06 2.617
5 irregular 7 92 692 31 2.500000e+00 0.177 faster 0 1.465278e+06 1.465282e+06 3.461
5 irregular 7 93 693 30 1 0.495 slower 1 1.465288e+06 1.465290e+06 2.086
5 irregular 7 94 694 89 3 0.575 slower 0 1.465292e+06 1.465296e+06 4.858
5 irregular 7 95 695 30 1.500000e+00 0.349 faster 0 1.465298e+06 1.465301e+06 2.638
5 irregular 7 96 696 90 2 0.230 faster 1 1.465302e+06 1.465305e+06 3.083
5 irregular 7 97 697 90 3 0.596 faster 1 1.465307e+06 1.465311e+06 4.058
5 irregular 7 98 698 31 3 0.102 faster 0 1.465313e+06 1.465316e+06 3.755
5 irregular 7 99 699 30 2.500000e+00 0.340 slower 1 1.465323e+06 1.465328e+06 4.596
5 irregular 7 100 700 30 1 0.436 faster 0 1.465330e+06 1.465331e+06 1.624
5 regular 8 1 701 90 1.500000e+00 0.296 none 2 1.465458e+06 1.465463e+06 4.499
5 regular 8 2 702 90 1.500000e+00 0.210 faster 1 1.465464e+06 1.465467e+06 2.702
5 regular 8 3 703 31 1.500000e+00 0.418 faster 0 1.465468e+06 1.465471e+06 2.357
5 regular 8 4 704 90 1.500000e+00 0.430 faster 1 1.465472e+06 1.465474e+06 2.089
5 regular 8 5 705 30 1.500000e+00 0.408 faster 0 1.465476e+06 1.465479e+06 2.824
5 regular 8 6 706 30 1.500000e+00 0.132 faster 0 1.465481e+06 1.465483e+06 2.359
5 regular 8 7 707 30 1.500000e+00 0.496 slower 1 1.465485e+06 1.465488e+06 2.890
5 regular 8 8 708 89 1.500000e+00 0.389 faster 1 1.465489e+06 1.465492e+06 2.727
5 regular 8 9 709 31 1.500000e+00 0.168 slower 1 1.465493e+06 1.465497e+06 3.538
5 regular 8 10 710 32 1.500000e+00 0.597 faster 0 1.465499e+06 1.465501e+06 2.710
5 regular 8 11 711 31 1.500000e+00 0.190 faster 0 1.465503e+06 1.465505e+06 2.233
5 regular 8 12 712 30 1.500000e+00 0.524 faster 0 1.465507e+06 1.465509e+06 2.325
5 regular 8 13 713 30 1.500000e+00 0.485 faster 0 1.465511e+06 1.465513e+06 2.200
5 regular 8 14 714 90 1.500000e+00 0.248 faster 1 1.465514e+06 1.465518e+06 3.458
5 regular 8 15 715 30 1.500000e+00 0.220 faster 0 1.465519e+06 1.465523e+06 3.479
5 regular 8 16 716 90 1.500000e+00 0.113 faster 1 1.465524e+06 1.465527e+06 2.663
5 regular 8 17 717 89 1.500000e+00 0.123 faster 1 1.465528e+06 1.465531e+06 2.797
5 regular 8 18 718 89 1.500000e+00 0.501 faster 1 1.465532e+06 1.465535e+06 3.206
5 regular 8 19 719 88 1.500000e+00 0.217 faster 1 1.465536e+06 1.465539e+06 2.522
5 regular 8 20 720 88 1.500000e+00 0.238 faster 1 1.465540e+06 1.465543e+06 2.390
5 regular 8 21 721 87 1.500000e+00 0.378 faster 1 1.465544e+06 1.465547e+06 2.521
5 regular 8 22 722 33 1.500000e+00 0.130 faster 0 1.465548e+06 1.465550e+06 2.357
5 regular 8 23 723 88 1.500000e+00 0.196 faster 1 1.465552e+06 1.465554e+06 2.274
5 regular 8 24 724 87 1.500000e+00 0.519 faster 1 1.465556e+06 1.465558e+06 2.095
5 regular 8 25 725 87 1.500000e+00 0.346 slower 0 1.465559e+06 1.465562e+06 2.457
5 regular 8 26 726 88 1.500000e+00 0.579 faster 1 1.465564e+06 1.465566e+06 2.883
5 regular 8 27 727 87 1.500000e+00 0.111 slower 0 1.465568e+06 1.465570e+06 2.692
5 regular 8 28 728 32 1.500000e+00 0.584 slower 1 1.465572e+06 1.465575e+06 2.406
5 regular 8 29 729 88 1.500000e+00 0.379 faster 1 1.465576e+06 1.465579e+06 2.709
5 regular 8 30 730 33 1.500000e+00 0.123 faster 0 1.465580e+06 1.465583e+06 2.476
5 regular 8 31 731 32 1.500000e+00 0.397 faster 0 1.465584e+06 1.465587e+06 2.529
5 regular 8 32 732 89 1.500000e+00 0.527 slower 0 1.465589e+06 1.465592e+06 3.092
5 regular 8 33 733 90 1.500000e+00 0.179 slower 0 1.465593e+06 1.465596e+06 3.003
5 regular 8 34 734 30 1.500000e+00 0.335 faster 0 1.465597e+06 1.465600e+06 2.554
5 regular 8 35 735 90 1.500000e+00 0.274 faster 1 1.465601e+06 1.465603e+06 2.005
5 regular 8 36 736 30 1.500000e+00 0.231 faster 0 1.465604e+06 1.465606e+06 2.242
5 regular 8 37 737 30 1.500000e+00 0.420 slower 1 1.465607e+06 1.465610e+06 2.812
5 regular 8 38 738 89 1.500000e+00 0.341 faster 1 1.465612e+06 1.465614e+06 2.530
5 regular 8 39 739 31 1.500000e+00 0.507 slower 1 1.465617e+06 1.465619e+06 2.368
5 regular 8 40 740 88 1.500000e+00 0.148 faster 1 1.465621e+06 1.465623e+06 2.206
5 regular 8 41 741 88 1.500000e+00 0.258 slower 0 1.465625e+06 1.465628e+06 3.296
5 regular 8 42 742 31 1.500000e+00 0.107 faster 0 1.465629e+06 1.465631e+06 2.204
5 regular 8 43 743 30 1.500000e+00 0.276 faster 0 1.465633e+06 1.465635e+06 2.279
5 regular 8 44 744 30 1.500000e+00 0.136 faster 0 1.465636e+06 1.465639e+06 2.396
5 regular 8 45 745 30 1.500000e+00 0.450 faster 0 1.465641e+06 1.465644e+06 2.739
5 regular 8 46 746 30 1.500000e+00 0.290 faster 0 1.465645e+06 1.465647e+06 2.040
5 regular 8 47 747 90 1.500000e+00 0.111 faster 1 1.465649e+06 1.465651e+06 2.148
5 regular 8 48 748 89 1.500000e+00 0.532 faster 1 1.465653e+06 1.465655e+06 2.427
5 regular 8 49 749 31 1.500000e+00 0.303 faster 0 1.465657e+06 1.465659e+06 2.162
5 regular 8 50 750 30 1.500000e+00 0.393 slower 1 1.465661e+06 1.465663e+06 2.502
5 regular 8 51 751 89 1.500000e+00 0.117 slower 0 1.465666e+06 1.465669e+06 2.841
5 regular 8 52 752 30 1.500000e+00 0.167 faster 0 1.465670e+06 1.465672e+06 2.543
5 regular 8 53 753 90 1.500000e+00 0.435 faster 1 1.465676e+06 1.465678e+06 2.233
5 regular 8 54 754 30 1.500000e+00 0.429 faster 0 1.465680e+06 1.465682e+06 2.248
5 regular 8 55 755 30 1.500000e+00 0.261 faster 0 1.465683e+06 1.465686e+06 2.553
5 regular 8 56 756 90 1.500000e+00 0.278 faster 1 1.465687e+06 1.465690e+06 2.325
5 regular 8 57 757 31 1.500000e+00 0.185 faster 0 1.465691e+06 1.465694e+06 2.391
5 regular 8 58 758 90 1.500000e+00 0.270 faster 1 1.465695e+06 1.465698e+06 2.173
5 regular 8 59 759 90 1.500000e+00 0.309 slower 0 1.465699e+06 1.465701e+06 2.429
5 regular 8 60 760 30 1.500000e+00 0.470 faster 0 1.465707e+06 1.465709e+06 2.861
5 regular 8 61 761 30 1.500000e+00 0.129 faster 0 1.465711e+06 1.465713e+06 2.574
5 regular 8 62 762 30 1.500000e+00 0.111 slower 1 1.465715e+06 1.465717e+06 2.641
5 regular 8 63 763 31 1.500000e+00 0.379 slower 1 1.465719e+06 1.465722e+06 2.933
5 regular 8 64 764 31 1.500000e+00 0.547 slower 1 1.465723e+06 1.465726e+06 2.551
5 regular 8 65 765 88 1.500000e+00 0.451 faster 1 1.465728e+06 1.465730e+06 2.560
5 regular 8 66 766 88 1.500000e+00 0.175 faster 1 1.465731e+06 1.465734e+06 3.135
5 regular 8 67 767 33 1.500000e+00 0.497 faster 0 1.465736e+06 1.465739e+06 2.983
5 regular 8 68 768 32 1.500000e+00 0.141 slower 1 1.465740e+06 1.465743e+06 2.615
5 regular 8 69 769 32 1.500000e+00 0.429 faster 0 1.465746e+06 1.465748e+06 2.457
5 regular 8 70 770 89 1.500000e+00 0.147 slower 0 1.465750e+06 1.465752e+06 2.431
5 regular 8 71 771 30 1.500000e+00 0.364 slower 1 1.465754e+06 1.465757e+06 2.743
5 regular 8 72 772 31 1.500000e+00 0.241 slower 1 1.465759e+06 1.465761e+06 2.569
5 regular 8 73 773 89 1.500000e+00 0.190 faster 1 1.465763e+06 1.465767e+06 3.376
5 regular 8 74 774 88 1.500000e+00 0.575 faster 1 1.465769e+06 1.465771e+06 2.440
5 regular 8 75 775 88 1.500000e+00 0.113 faster 1 1.465775e+06 1.465777e+06 2.291
5 regular 8 76 776 87 1.500000e+00 0.204 faster 1 1.465781e+06 1.465783e+06 2.270
5 regular 8 77 777 33 1.500000e+00 0.286 faster 0 1.465787e+06 1.465789e+06 2.086
5 regular 8 78 778 32 1.500000e+00 0.210 faster 0 1.465791e+06 1.465793e+06 2.246
5 regular 8 79 779 89 1.500000e+00 0.495 faster 1 1.465794e+06 1.465797e+06 2.335
5 regular 8 80 780 32 1.500000e+00 0.228 slower 1 1.465801e+06 1.465804e+06 3.190
5 regular 8 81 781 88 1.500000e+00 0.512 slower 0 1.465808e+06 1.465811e+06 3.076
5 regular 8 82 782 31 1.500000e+00 0.260 slower 1 1.465814e+06 1.465817e+06 2.830
5 regular 8 83 783 88 1.500000e+00 0.393 slower 0 1.465818e+06 1.465821e+06 2.638
5 regular 8 84 784 31 1.500000e+00 0.547 faster 0 1.465826e+06 1.465829e+06 2.674
5 regular 8 85 785 30 1.500000e+00 0.504 slower 1 1.465831e+06 1.465834e+06 2.746
5 regular 8 86 786 90 1.500000e+00 0.389 faster 1 1.465835e+06 1.465838e+06 2.790
5 regular 8 87 787 31 1.500000e+00 0.500 slower 1 1.465840e+06 1.465842e+06 2.686
5 regular 8 88 788 89 1.500000e+00 0.463 slower 0 1.465847e+06 1.465850e+06 2.717
5 regular 8 89 789 90 1.500000e+00 0.581 faster 1 1.465853e+06 1.465856e+06 2.759
5 regular 8 90 790 89 1.500000e+00 0.593 faster 1 1.465859e+06 1.465862e+06 2.593
5 regular 8 91 791 31 1.500000e+00 0.318 faster 0 1.465869e+06 1.465871e+06 2.776
5 regular 8 92 792 90 1.500000e+00 0.233 faster 1 1.465875e+06 1.465878e+06 3.049
5 regular 8 93 793 31 1.500000e+00 0.324 slower 1 1.465879e+06 1.465882e+06 2.783
5 regular 8 94 794 89 1.500000e+00 0.545 faster 1 1.465884e+06 1.465886e+06 2.488
5 regular 8 95 795 88 1.500000e+00 0.228 faster 1 1.465890e+06 1.465892e+06 2.460
5 regular 8 96 796 88 1.500000e+00 0.211 slower 0 1.465895e+06 1.465897e+06 2.586
5 regular 8 97 797 31 1.500000e+00 0.279 slower 1 1.465900e+06 1.465903e+06 3.106
5 regular 8 98 798 32 1.500000e+00 0.142 faster 0 1.465907e+06 1.465909e+06 2.469
5 regular 8 99 799 89 1.500000e+00 0.528 slower 0 1.465911e+06 1.465914e+06 2.602
5 regular 8 100 800 90 1.500000e+00 0.413 faster 1 1.465918e+06 1.465922e+06 3.456
5 irregular 9 1 801 90 1 0.517 faster 1 1.465994e+06 1.465996e+06 1.809
5 irregular 9 2 802 31 1 0.404 faster 0 1.465997e+06 1.465999e+06 1.925
5 irregular 9 3 803 90 1 0.325 slower 0 1.466001e+06 1.466003e+06 2.526
5 irregular 9 4 804 30 2 0.346 slower 1 1.466005e+06 1.466007e+06 2.525
5 irregular 9 5 805 90 2.500000e+00 0.397 slower 0 1.466009e+06 1.466012e+06 3.158
5 irregular 9 6 806 90 3 0.344 slower 0 1.466014e+06 1.466017e+06 3.400
5 irregular 9 7 807 30 2.500000e+00 0.138 slower 1 1.466020e+06 1.466023e+06 3.410
5 irregular 9 8 808 31 2 0.449 slower 1 1.466025e+06 1.466028e+06 3.133
5 irregular 9 9 809 31 3 0.111 faster 0 1.466029e+06 1.466034e+06 4.835
5 irregular 9 10 810 30 2.500000e+00 0.288 faster 0 1.466036e+06 1.466039e+06 3.315
5 irregular 9 11 811 90 2 0.325 faster 1 1.466040e+06 1.466045e+06 4.264
5 irregular 9 12 812 31 1 0.584 faster 0 1.466047e+06 1.466049e+06 1.976
5 irregular 9 13 813 30 1.500000e+00 0.354 faster 0 1.466050e+06 1.466053e+06 2.601
5 irregular 9 14 814 30 1.500000e+00 0.192 faster 0 1.466054e+06 1.466057e+06 2.587
5 irregular 9 15 815 90 1.500000e+00 0.481 slower 0 1.466059e+06 1.466062e+06 3.622
5 irregular 9 16 816 90 2.500000e+00 0.425 slower 0 1.466064e+06 1.466067e+06 3.354
5 irregular 9 17 817 30 1 0.204 faster 0 1.466068e+06 1.466071e+06 2.301
5 irregular 9 18 818 90 2 0.123 slower 0 1.466072e+06 1.466076e+06 3.698
5 irregular 9 19 819 30 2 0.218 faster 0 1.466077e+06 1.466080e+06 3.309
5 irregular 9 20 820 30 2.500000e+00 0.545 slower 1 1.466082e+06 1.466087e+06 4.570
5 irregular 9 21 821 30 1 0.389 faster 0 1.466088e+06 1.466090e+06 1.816
5 irregular 9 22 822 90 1.500000e+00 0.312 faster 1 1.466092e+06 1.466094e+06 2.396
5 irregular 9 23 823 89 2.500000e+00 0.493 faster 1 1.466096e+06 1.466099e+06 3.191
5 irregular 9 24 824 31 1 0.266 faster 0 1.466100e+06 1.466102e+06 1.723
5 irregular 9 25 825 90 1 0.136 faster 1 1.466103e+06 1.466105e+06 1.532
5 irregular 9 26 826 31 3 0.582 slower 1 1.466107e+06 1.466110e+06 3.661
5 irregular 9 27 827 31 2 0.236 slower 1 1.466112e+06 1.466115e+06 3.137
5 irregular 9 28 828 88 2.500000e+00 0.364 slower 0 1.466117e+06 1.466120e+06 3.102
5 irregular 9 29 829 89 3 0.142 slower 0 1.466121e+06 1.466125e+06 3.908
5 irregular 9 30 830 90 1.500000e+00 0.288 faster 1 1.466126e+06 1.466128e+06 2.261
5 irregular 9 31 831 90 2 0.239 slower 0 1.466130e+06 1.466133e+06 3.040
5 irregular 9 32 832 30 2 0.244 faster 0 1.466135e+06 1.466139e+06 3.932
5 irregular 9 33 833 30 2 0.251 slower 1 1.466140e+06 1.466143e+06 3.027
5 irregular 9 34 834 89 2.500000e+00 0.105 faster 1 1.466144e+06 1.466148e+06 3.479
5 irregular 9 35 835 31 1.500000e+00 0.396 faster 0 1.466149e+06 1.466152e+06 2.286
5 irregular 9 36 836 90 1.500000e+00 0.486 none 2 1.466153e+06 1.466158e+06 4.499
5 irregular 9 37 837 90 1.500000e+00 0.290 none 2 1.466159e+06 1.466163e+06 4.499
5 irregular 9 38 838 30 2 0.201 faster 0 1.466164e+06 1.466167e+06 3.028
5 irregular 9 39 839 30 3 0.327 slower 1 1.466169e+06 1.466172e+06 3.653
5 irregular 9 40 840 89 2.500000e+00 0.314 slower 0 1.466174e+06 1.466177e+06 3.473
5 irregular 9 41 841 30 2.500000e+00 0.367 slower 1 1.466179e+06 1.466182e+06 3.545
5 irregular 9 42 842 90 1 0.314 faster 1 1.466183e+06 1.466186e+06 2.323
5 irregular 9 43 843 31 1 0.113 slower 1 1.466187e+06 1.466189e+06 2.267
5 irregular 9 44 844 31 1.500000e+00 0.155 faster 0 1.466191e+06 1.466193e+06 2.864
5 irregular 9 45 845 90 1 0.226 slower 0 1.466195e+06 1.466197e+06 2.144
5 irregular 9 46 846 90 2 0.113 slower 0 1.466198e+06 1.466201e+06 3.015
5 irregular 9 47 847 30 1 0.150 slower 1 1.466202e+06 1.466204e+06 2.126
5 irregular 9 48 848 31 1.500000e+00 0.257 slower 1 1.466206e+06 1.466209e+06 2.891
5 irregular 9 49 849 89 2.500000e+00 0.580 slower 0 1.466211e+06 1.466215e+06 3.601
5 irregular 9 50 850 90 1 0.368 faster 1 1.466216e+06 1.466218e+06 1.999
5 irregular 9 51 851 89 1.500000e+00 0.401 faster 1 1.466220e+06 1.466222e+06 2.688
5 irregular 9 52 852 89 2 0.425 faster 1 1.466224e+06 1.466227e+06 2.995
5 irregular 9 53 853 32 3 0.340 slower 1 1.466229e+06 1.466233e+06 4.407
5 irregular 9 54 854 32 3 0.532 slower 1 1.466236e+06 1.466240e+06 4.269
5 irregular 9 55 855 33 2.500000e+00 0.420 slower 1 1.466241e+06 1.466244e+06 3.196
5 irregular 9 56 856 87 3 0.599 slower 0 1.466246e+06 1.466250e+06 3.816
5 irregular 9 57 857 88 1.500000e+00 0.499 slower 0 1.466251e+06 1.466253e+06 2.147
5 irregular 9 58 858 89 3 0.595 slower 0 1.466256e+06 1.466259e+06 3.571
5 irregular 9 59 859 90 1 0.234 faster 1 1.466261e+06 1.466263e+06 2.125
5 irregular 9 60 860 89 1 0.166 faster 1 1.466264e+06 1.466266e+06 1.616
5 irregular 9 61 861 89 3 0.460 slower 0 1.466267e+06 1.466272e+06 4.551
5 irregular 9 62 862 30 3 0.253 slower 1 1.466273e+06 1.466277e+06 3.777
5 irregular 9 63 863 31 2 0.387 slower 1 1.466279e+06 1.466282e+06 2.902
5 irregular 9 64 864 89 1.500000e+00 0.182 faster 1 1.466283e+06 1.466285e+06 2.527
5 irregular 9 65 865 32 1.500000e+00 0.226 faster 0 1.466287e+06 1.466289e+06 2.155
5 irregular 9 66 866 31 2.500000e+00 0.266 slower 1 1.466291e+06 1.466294e+06 3.340
5 irregular 9 67 867 89 1 0.338 faster 1 1.466295e+06 1.466297e+06 1.642
5 irregular 9 68 868 32 2 0.430 slower 1 1.466299e+06 1.466301e+06 2.593
5 irregular 9 69 869 88 2 0.308 slower 0 1.466303e+06 1.466306e+06 2.796
5 irregular 9 70 870 31 2.500000e+00 0.271 slower 1 1.466308e+06 1.466311e+06 3.467
5 irregular 9 71 871 32 1 0.226 faster 0 1.466313e+06 1.466315e+06 2.033
5 irregular 9 72 872 89 1.500000e+00 0.102 faster 1 1.466316e+06 1.466318e+06 2.225
5 irregular 9 73 873 31 2.500000e+00 0.275 slower 1 1.466320e+06 1.466323e+06 3.319
5 irregular 9 74 874 32 3 0.389 slower 1 1.466325e+06 1.466328e+06 3.585
5 irregular 9 75 875 32 1.500000e+00 0.434 slower 1 1.466330e+06 1.466333e+06 2.271
5 irregular 9 76 876 87 3 0.588 slower 0 1.466334e+06 1.466338e+06 3.897
5 irregular 9 77 877 32 1 0.265 faster 0 1.466340e+06 1.466342e+06 2.346
5 irregular 9 78 878 31 2.500000e+00 0.571 slower 1 1.466344e+06 1.466348e+06 3.911
5 irregular 9 79 879 31 2.500000e+00 0.141 slower 1 1.466349e+06 1.466352e+06 3.282
5 irregular 9 80 880 88 2.500000e+00 0.396 faster 1 1.466354e+06 1.466357e+06 3.180
5 irregular 9 81 881 32 1.500000e+00 0.214 faster 0 1.466360e+06 1.466362e+06 2.345
5 irregular 9 82 882 89 2 0.585 slower 0 1.466364e+06 1.466367e+06 2.942
5 irregular 9 83 883 30 3 0.396 slower 1 1.466369e+06 1.466372e+06 3.551
5 irregular 9 84 884 89 1 0.358 faster 1 1.466374e+06 1.466376e+06 1.862
5 irregular 9 85 885 89 1.500000e+00 0.591 faster 1 1.466379e+06 1.466383e+06 3.776
5 irregular 9 86 886 88 2.500000e+00 0.248 slower 0 1.466385e+06 1.466388e+06 3.310
5 irregular 9 87 887 89 3 0.216 slower 0 1.466394e+06 1.466398e+06 3.781
5 irregular 9 88 888 90 3 0.247 slower 0 1.466399e+06 1.466403e+06 3.738
5 irregular 9 89 889 30 1.500000e+00 0.156 faster 0 1.466404e+06 1.466406e+06 2.435
5 irregular 9 90 890 30 3 0.366 none 2 1.466408e+06 1.466414e+06 5.999
5 irregular 9 91 891 30 2 0.165 faster 0 1.466415e+06 1.466417e+06 2.770
5 irregular 9 92 892 90 2 0.596 faster 1 1.466419e+06 1.466422e+06 2.750
5 irregular 9 93 893 30 1 0.428 faster 0 1.466424e+06 1.466425e+06 1.734
5 irregular 9 94 894 90 3 0.538 faster 1 1.466427e+06 1.466431e+06 3.698
5 irregular 9 95 895 89 2 0.195 slower 0 1.466433e+06 1.466436e+06 3.103
5 irregular 9 96 896 90 2 0.401 slower 0 1.466438e+06 1.466441e+06 2.765
5 irregular 9 97 897 30 1.500000e+00 0.106 slower 1 1.466442e+06 1.466445e+06 2.706
5 irregular 9 98 898 90 2.500000e+00 0.518 slower 0 1.466448e+06 1.466451e+06 3.359
5 irregular 9 99 899 30 3 0.498 slower 1 1.466453e+06 1.466458e+06 4.594
5 irregular 9 100 900 89 3 0.123 slower 0 1.466459e+06 1.466463e+06 3.999
5 regular 10 1 901 30 1 0.414 faster 0 1.466487e+06 1.466488e+06 1.744
5 regular 10 2 902 90 1 0.400 faster 1 1.466489e+06 1.466491e+06 1.697
5 regular 10 3 903 90 1 0.402 faster 1 1.466492e+06 1.466494e+06 1.603
5 regular 10 4 904 31 1 0.257 faster 0 1.466495e+06 1.466497e+06 1.594
5 regular 10 5 905 90 1 0.133 faster 1 1.466498e+06 1.466500e+06 1.630
5 regular 10 6 906 90 1 0.586 faster 1 1.466502e+06 1.466504e+06 1.918
5 regular 10 7 907 31 1 0.279 faster 0 1.466504e+06 1.466506e+06 1.793
5 regular 10 8 908 90 1 0.504 faster 1 1.466507e+06 1.466509e+06 1.763
5 regular 10 9 909 90 1 0.568 faster 1 1.466510e+06 1.466512e+06 1.871
5 regular 10 10 910 89 1 0.284 faster 1 1.466514e+06 1.466516e+06 1.596
5 regular 10 11 911 89 1 0.208 faster 1 1.466516e+06 1.466519e+06 2.697
5 regular 10 12 912 88 1 0.488 faster 1 1.466520e+06 1.466522e+06 2.037
5 regular 10 13 913 32 1 0.260 slower 1 1.466524e+06 1.466526e+06 1.973
5 regular 10 14 914 87 1 0.598 faster 1 1.466528e+06 1.466530e+06 2.613
5 regular 10 15 915 87 1 0.448 slower 0 1.466532e+06 1.466534e+06 2.261
5 regular 10 16 916 32 1 0.267 faster 0 1.466536e+06 1.466539e+06 3.271
5 regular 10 17 917 89 1 0.536 slower 0 1.466540e+06 1.466542e+06 1.984
5 regular 10 18 918 90 1 0.308 faster 1 1.466544e+06 1.466547e+06 2.882
5 regular 10 19 919 31 1 0.489 faster 0 1.466549e+06 1.466551e+06 2.646
5 regular 10 20 920 90 1 0.462 slower 0 1.466553e+06 1.466555e+06 1.816
5 regular 10 21 921 90 1 0.365 slower 0 1.466558e+06 1.466560e+06 1.762
5 regular 10 22 922 30 1 0.242 faster 0 1.466561e+06 1.466564e+06 2.125
5 regular 10 23 923 90 1 0.164 slower 0 1.466565e+06 1.466567e+06 1.908
5 regular 10 24 924 30 1 0.560 slower 1 1.466569e+06 1.466571e+06 2.027
5 regular 10 25 925 30 1 0.309 slower 1 1.466572e+06 1.466574e+06 2.490
5 regular 10 26 926 31 1 0.505 slower 1 1.466576e+06 1.466577e+06 1.770
5 regular 10 27 927 89 1 0.558 slower 0 1.466579e+06 1.466580e+06 1.798
5 regular 10 28 928 30 1 0.263 slower 1 1.466582e+06 1.466584e+06 1.957
5 regular 10 29 929 89 1 0.156 faster 1 1.466586e+06 1.466587e+06 1.974
5 regular 10 30 930 31 1 0.463 slower 1 1.466589e+06 1.466591e+06 1.967
5 regular 10 31 931 88 1 0.143 slower 0 1.466593e+06 1.466595e+06 2.146
5 regular 10 32 932 31 1 0.391 faster 0 1.466596e+06 1.466599e+06 2.527
5 regular 10 33 933 90 1 0.473 faster 1 1.466601e+06 1.466603e+06 2.366
5 regular 10 34 934 30 1 0.468 slower 1 1.466605e+06 1.466606e+06 1.920
5 regular 10 35 935 31 1 0.554 slower 1 1.466609e+06 1.466611e+06 1.745
5 regular 10 36 936 31 1 0.165 faster 0 1.466612e+06 1.466614e+06 1.883
5 regular 10 37 937 30 1 0.231 faster 0 1.466615e+06 1.466617e+06 1.975
5 regular 10 38 938 90 1 0.317 slower 0 1.466619e+06 1.466621e+06 2.039
5 regular 10 39 939 90 1 0.523 slower 0 1.466622e+06 1.466624e+06 1.685
5 regular 10 40 940 30 1 0.261 slower 1 1.466624e+06 1.466626e+06 1.691
5 regular 10 41 941 89 1 0.493 slower 0 1.466627e+06 1.466629e+06 1.931
5 regular 10 42 942 30 1 0.571 slower 1 1.466631e+06 1.466633e+06 1.643
5 regular 10 43 943 30 1 0.505 slower 1 1.466634e+06 1.466636e+06 1.806
5 regular 10 44 944 89 1 0.528 slower 0 1.466637e+06 1.466639e+06 1.602
5 regular 10 45 945 30 1 0.478 faster 0 1.466641e+06 1.466643e+06 1.906
5 regular 10 46 946 30 1 0.337 faster 0 1.466644e+06 1.466646e+06 1.959
5 regular 10 47 947 90 1 0.457 faster 1 1.466648e+06 1.466650e+06 1.824
5 regular 10 48 948 30 1 0.477 faster 0 1.466651e+06 1.466652e+06 1.625
5 regular 10 49 949 90 1 0.405 faster 1 1.466654e+06 1.466656e+06 1.696
5 regular 10 50 950 31 1 0.164 faster 0 1.466657e+06 1.466659e+06 2.027
5 regular 10 51 951 90 1 0.280 faster 1 1.466660e+06 1.466662e+06 1.914
5 regular 10 52 952 30 1 0.252 faster 0 1.466663e+06 1.466665e+06 2.082
5 regular 10 53 953 90 1 0.541 faster 1 1.466666e+06 1.466668e+06 2.030
5 regular 10 54 954 31 1 0.237 faster 0 1.466670e+06 1.466672e+06 1.952
5 regular 10 55 955 30 1 0.198 slower 1 1.466673e+06 1.466675e+06 1.967
5 regular 10 56 956 30 1 0.385 slower 1 1.466676e+06 1.466678e+06 2.219
5 regular 10 57 957 89 1 0.558 slower 0 1.466680e+06 1.466682e+06 1.614
5 regular 10 58 958 90 1 0.473 faster 1 1.466683e+06 1.466685e+06 2.197
5 regular 10 59 959 90 1 0.316 faster 1 1.466686e+06 1.466688e+06 1.629
5 regular 10 60 960 31 1 0.245 faster 0 1.466689e+06 1.466690e+06 1.662
5 regular 10 61 961 90 1 0.323 faster 1 1.466692e+06 1.466694e+06 1.926
5 regular 10 62 962 30 1 0.403 faster 0 1.466695e+06 1.466697e+06 1.861
5 regular 10 63 963 90 1 0.276 faster 1 1.466698e+06 1.466700e+06 1.778
5 regular 10 64 964 89 1 0.438 slower 0 1.466702e+06 1.466704e+06 2.113
5 regular 10 65 965 90 1 0.201 faster 1 1.466705e+06 1.466707e+06 2.369
5 regular 10 66 966 30 1 0.152 slower 1 1.466708e+06 1.466710e+06 1.993
5 regular 10 67 967 89 1 0.187 slower 0 1.466711e+06 1.466713e+06 1.884
5 regular 10 68 968 90 1 0.422 slower 0 1.466715e+06 1.466717e+06 1.969
5 regular 10 69 969 30 1 0.545 slower 1 1.466719e+06 1.466721e+06 2.239
5 regular 10 70 970 30 1 0.322 faster 0 1.466723e+06 1.466725e+06 1.916
5 regular 10 71 971 90 1 0.579 slower 0 1.466726e+06 1.466728e+06 2.012
5 regular 10 72 972 30 1 0.327 slower 1 1.466730e+06 1.466732e+06 1.803
5 regular 10 73 973 31 1 0.411 slower 1 1.466733e+06 1.466734e+06 1.646
5 regular 10 74 974 89 1 0.291 slower 0 1.466736e+06 1.466738e+06 2.015
5 regular 10 75 975 90 1 0.389 slower 0 1.466739e+06 1.466741e+06 1.654
5 regular 10 76 976 30 1 0.300 slower 1 1.466743e+06 1.466745e+06 2.081
5 regular 10 77 977 31 1 0.170 faster 0 1.466746e+06 1.466749e+06 2.296
5 regular 10 78 978 30 1 0.457 faster 0 1.466750e+06 1.466752e+06 1.690
5 regular 10 79 979 90 1 0.514 slower 0 1.466754e+06 1.466755e+06 1.940
5 regular 10 80 980 30 1 0.498 faster 0 1.466757e+06 1.466758e+06 1.594
5 regular 10 81 981 90 1 0.218 faster 1 1.466759e+06 1.466761e+06 1.572
5 regular 10 82 982 30 1 0.424 faster 0 1.466762e+06 1.466764e+06 1.714
5 regular 10 83 983 90 1 0.114 faster 1 1.466767e+06 1.466769e+06 1.857
5 regular 10 84 984 31 1 0.346 slower 1 1.466771e+06 1.466772e+06 1.895
5 regular 10 85 985 31 1 0.180 faster 0 1.466773e+06 1.466775e+06 2.047
5 regular 10 86 986 30 1 0.331 faster 0 1.466776e+06 1.466778e+06 1.734
5 regular 10 87 987 30 1 0.408 faster 0 1.466779e+06 1.466781e+06 1.604
5 regular 10 88 988 90 1 0.220 slower 0 1.466783e+06 1.466784e+06 1.625
5 regular 10 89 989 90 1 0.171 faster 1 1.466786e+06 1.466787e+06 1.628
5 regular 10 90 990 31 1 0.120 faster 0 1.466788e+06 1.466790e+06 1.733
5 regular 10 91 991 30 1 0.516 faster 0 1.466791e+06 1.466793e+06 1.595
5 regular 10 92 992 90 1 0.239 faster 1 1.466794e+06 1.466796e+06 1.705
5 regular 10 93 993 30 1 0.176 faster 0 1.466797e+06 1.466799e+06 1.609
5 regular 10 94 994 90 1 0.350 faster 1 1.466800e+06 1.466802e+06 1.579
5 regular 10 95 995 31 1 0.392 slower 1 1.466803e+06 1.466805e+06 2.122
5 regular 10 96 996 31 1 0.143 slower 1 1.466806e+06 1.466808e+06 1.667
5 regular 10 97 997 32 1 0.588 slower 1 1.466810e+06 1.466812e+06 1.878
5 regular 10 98 998 88 1 0.406 slower 0 1.466813e+06 1.466815e+06 1.822
5 regular 10 99 999 89 1 0.571 none 2 1.466816e+06 1.466820e+06 3.999
5 regular 10 100 1000 89 1 0.226 faster 1 1.466821e+06 1.466823e+06 1.741
