subNo condition blockNo trialNo trialID currentFrequency cueTargetInterval randomPreCueInterval response responseAccuracy startTime responseTime RT
2 regular 1 1 1 51 2.500000e+00 0.170 slower 1 1.391182e+06 1.391185e+06 3.235
2 regular 1 2 2 69 2.500000e+00 0.333 faster 1 1.391186e+06 1.391190e+06 3.059
2 regular 1 3 3 53 2.500000e+00 0.525 faster 0 1.391191e+06 1.391194e+06 3.161
2 regular 1 4 4 69 2.500000e+00 0.136 faster 1 1.391195e+06 1.391198e+06 2.971
2 regular 1 5 5 51 2.500000e+00 0.143 slower 1 1.391199e+06 1.391202e+06 3.118
2 regular 1 6 6 53 2.500000e+00 0.513 slower 1 1.391205e+06 1.391208e+06 3.420
2 regular 1 7 7 67 2.500000e+00 0.396 faster 1 1.391211e+06 1.391214e+06 3.199
2 regular 1 8 8 55 2.500000e+00 0.248 faster 0 1.391215e+06 1.391218e+06 3.113
2 regular 1 9 9 67 2.500000e+00 0.239 faster 1 1.391219e+06 1.391222e+06 2.916
2 regular 1 10 10 53 2.500000e+00 0.508 slower 1 1.391224e+06 1.391227e+06 3.140
2 regular 1 11 11 55 2.500000e+00 0.182 slower 1 1.391228e+06 1.391231e+06 3.434
2 regular 1 12 12 65 2.500000e+00 0.333 faster 1 1.391233e+06 1.391236e+06 3.274
2 regular 1 13 13 56 2.500000e+00 0.106 faster 0 1.391237e+06 1.391240e+06 3.111
2 regular 1 14 14 65 2.500000e+00 0.530 faster 1 1.391242e+06 1.391245e+06 3.054
2 regular 1 15 15 65 2.500000e+00 0.207 faster 1 1.391247e+06 1.391250e+06 3.000
2 regular 1 16 16 64 2.500000e+00 0.435 slower 0 1.391253e+06 1.391256e+06 3.077
2 regular 1 17 17 65 2.500000e+00 0.368 slower 0 1.391257e+06 1.391260e+06 3.242
2 regular 1 18 18 66 2.500000e+00 0.591 faster 1 1.391263e+06 1.391266e+06 3.012
2 regular 1 19 19 54 2.500000e+00 0.532 faster 0 1.391268e+06 1.391271e+06 3.052
2 regular 1 20 20 53 2.500000e+00 0.311 slower 1 1.391273e+06 1.391276e+06 3.110
2 regular 1 21 21 54 2.500000e+00 0.400 slower 1 1.391278e+06 1.391281e+06 3.302
2 regular 1 22 22 66 2.500000e+00 0.254 faster 1 1.391283e+06 1.391286e+06 3.325
2 regular 1 23 23 65 2.500000e+00 0.426 faster 1 1.391288e+06 1.391291e+06 3.028
2 regular 1 24 24 65 2.500000e+00 0.498 faster 1 1.391294e+06 1.391297e+06 3.017
2 regular 1 25 25 64 2.500000e+00 0.200 faster 1 1.391298e+06 1.391301e+06 3.066
2 regular 1 26 26 64 2.500000e+00 0.547 faster 1 1.391303e+06 1.391307e+06 3.512
2 regular 1 27 27 57 2.500000e+00 0.424 slower 1 1.391309e+06 1.391312e+06 3.151
2 regular 1 28 28 57 2.500000e+00 0.523 slower 1 1.391314e+06 1.391317e+06 3.164
2 regular 1 29 29 62 2.500000e+00 0.135 slower 0 1.391318e+06 1.391322e+06 3.866
2 regular 1 30 30 63 2.500000e+00 0.218 faster 1 1.391334e+06 1.391337e+06 3.487
2 regular 1 31 31 63 2.500000e+00 0.563 slower 0 1.391339e+06 1.391343e+06 3.953
2 regular 1 32 32 56 2.500000e+00 0.352 faster 0 1.391345e+06 1.391348e+06 3.067
2 regular 1 33 33 55 2.500000e+00 0.536 faster 0 1.391350e+06 1.391353e+06 3.413
2 regular 1 34 34 66 2.500000e+00 0.505 faster 1 1.391355e+06 1.391359e+06 3.354
2 regular 1 35 35 65 2.500000e+00 0.148 faster 1 1.391360e+06 1.391364e+06 3.387
2 regular 1 36 36 55 2.500000e+00 0.172 faster 0 1.391366e+06 1.391369e+06 3.130
2 regular 1 37 37 66 2.500000e+00 0.140 faster 1 1.391370e+06 1.391373e+06 3.215
2 regular 1 38 38 65 2.500000e+00 0.128 faster 1 1.391375e+06 1.391379e+06 3.109
2 regular 1 39 39 55 2.500000e+00 0.544 slower 1 1.391381e+06 1.391384e+06 3.364
2 regular 1 40 40 56 2.500000e+00 0.340 faster 0 1.391387e+06 1.391391e+06 3.598
2 regular 1 41 41 55 2.500000e+00 0.317 faster 0 1.391393e+06 1.391396e+06 3.076
2 regular 1 42 42 66 2.500000e+00 0.259 slower 0 1.391397e+06 1.391400e+06 3.026
2 regular 1 43 43 53 2.500000e+00 0.248 faster 0 1.391401e+06 1.391404e+06 3.250
2 regular 1 44 44 68 2.500000e+00 0.402 faster 1 1.391405e+06 1.391408e+06 3.041
2 regular 1 45 45 68 2.500000e+00 0.303 faster 1 1.391410e+06 1.391413e+06 3.118
2 regular 1 46 46 53 2.500000e+00 0.100 slower 1 1.391415e+06 1.391419e+06 3.237
2 regular 1 47 47 67 2.500000e+00 0.304 faster 1 1.391420e+06 1.391423e+06 3.135
2 regular 1 48 48 66 2.500000e+00 0.567 faster 1 1.391425e+06 1.391428e+06 3.014
2 regular 1 49 49 54 2.500000e+00 0.328 faster 0 1.391431e+06 1.391434e+06 3.118
2 regular 1 50 50 53 2.500000e+00 0.536 slower 1 1.391435e+06 1.391438e+06 3.602
2 regular 1 51 51 66 2.500000e+00 0.276 faster 1 1.391441e+06 1.391444e+06 3.028
2 regular 1 52 52 54 2.500000e+00 0.165 slower 1 1.391445e+06 1.391449e+06 3.257
2 regular 1 53 53 55 2.500000e+00 0.455 slower 1 1.391451e+06 1.391454e+06 3.351
2 regular 1 54 54 55 2.500000e+00 0.290 slower 1 1.391455e+06 1.391458e+06 3.113
2 regular 1 55 55 64 2.500000e+00 0.457 slower 0 1.391460e+06 1.391463e+06 3.115
2 regular 1 56 56 65 2.500000e+00 0.529 faster 1 1.391464e+06 1.391467e+06 3.226
2 regular 1 57 57 65 2.500000e+00 0.562 faster 1 1.391469e+06 1.391473e+06 3.589
2 regular 1 58 58 56 2.500000e+00 0.271 faster 0 1.391474e+06 1.391477e+06 3.054
2 regular 1 59 59 65 2.500000e+00 0.438 faster 1 1.391479e+06 1.391482e+06 3.046
2 regular 1 60 60 55 2.500000e+00 0.457 faster 0 1.391484e+06 1.391487e+06 3.313
2 regular 1 61 61 54 2.500000e+00 0.297 faster 0 1.391488e+06 1.391491e+06 3.217
2 regular 1 62 62 53 2.500000e+00 0.474 faster 0 1.391493e+06 1.391496e+06 3.306
2 regular 1 63 63 52 2.500000e+00 0.188 faster 0 1.391498e+06 1.391501e+06 3.373
2 regular 1 64 64 51 2.500000e+00 0.292 slower 1 1.391504e+06 1.391508e+06 4.168
2 regular 1 65 65 52 2.500000e+00 0.377 faster 0 1.391510e+06 1.391513e+06 3.131
2 regular 1 66 66 69 2.500000e+00 0.429 faster 1 1.391514e+06 1.391518e+06 3.066
2 regular 1 67 67 51 2.500000e+00 0.204 slower 1 1.391518e+06 1.391522e+06 3.209
2 regular 1 68 68 52 2.500000e+00 0.326 slower 1 1.391524e+06 1.391528e+06 3.653
2 regular 1 69 69 52 2.500000e+00 0.567 slower 1 1.391531e+06 1.391534e+06 3.333
2 regular 1 70 70 67 2.500000e+00 0.376 faster 1 1.391537e+06 1.391540e+06 3.113
2 regular 1 71 71 53 2.500000e+00 0.250 faster 0 1.391541e+06 1.391544e+06 3.247
2 regular 1 72 72 52 2.500000e+00 0.447 slower 1 1.391546e+06 1.391549e+06 3.492
2 regular 1 73 73 67 2.500000e+00 0.140 faster 1 1.391551e+06 1.391554e+06 3.092
2 regular 1 74 74 67 2.500000e+00 0.530 faster 1 1.391556e+06 1.391559e+06 3.009
2 regular 1 75 75 54 2.500000e+00 0.305 faster 0 1.391559e+06 1.391563e+06 3.497
2 regular 1 76 76 53 2.500000e+00 0.182 faster 0 1.391565e+06 1.391568e+06 3.144
2 regular 1 77 77 52 2.500000e+00 0.512 faster 0 1.391571e+06 1.391575e+06 3.127
2 regular 1 78 78 69 2.500000e+00 0.142 faster 1 1.391575e+06 1.391578e+06 3.123
2 regular 1 79 79 51 2.500000e+00 0.119 slower 1 1.391581e+06 1.391584e+06 3.045
2 regular 1 80 80 52 2.500000e+00 0.119 slower 1 1.391586e+06 1.391589e+06 3.145
2 regular 1 81 81 68 2.500000e+00 0.377 faster 1 1.391592e+06 1.391595e+06 3.342
2 regular 1 82 82 53 2.500000e+00 0.467 slower 1 1.391597e+06 1.391600e+06 3.054
2 regular 1 83 83 67 2.500000e+00 0.352 faster 1 1.391601e+06 1.391604e+06 3.075
2 regular 1 84 84 54 2.500000e+00 0.321 slower 1 1.391605e+06 1.391609e+06 3.658
2 regular 1 85 85 66 2.500000e+00 0.332 faster 1 1.391610e+06 1.391613e+06 3.224
2 regular 1 86 86 65 2.500000e+00 0.399 faster 1 1.391614e+06 1.391618e+06 3.484
2 regular 1 87 87 55 2.500000e+00 0.550 slower 1 1.391620e+06 1.391623e+06 3.195
2 regular 1 88 88 64 2.500000e+00 0.337 slower 0 1.391625e+06 1.391628e+06 3.310
2 regular 1 89 89 55 2.500000e+00 0.195 slower 1 1.391631e+06 1.391634e+06 3.206
2 regular 1 90 90 65 2.500000e+00 0.471 slower 0 1.391636e+06 1.391640e+06 3.251
2 regular 1 91 91 66 2.500000e+00 0.485 faster 1 1.391642e+06 1.391646e+06 3.817
2 regular 1 92 92 55 2.500000e+00 0.460 slower 1 1.391647e+06 1.391650e+06 3.037
2 regular 1 93 93 65 2.500000e+00 0.491 slower 0 1.391652e+06 1.391655e+06 3.091
2 regular 1 94 94 54 2.500000e+00 0.233 slower 1 1.391656e+06 1.391659e+06 3.198
2 regular 1 95 95 55 2.500000e+00 0.569 faster 0 1.391662e+06 1.391666e+06 3.810
2 regular 1 96 96 66 2.500000e+00 0.245 slower 0 1.391669e+06 1.391672e+06 3.316
2 regular 1 97 97 67 2.500000e+00 0.403 faster 1 1.391674e+06 1.391677e+06 3.033
2 regular 1 98 98 67 2.500000e+00 0.163 faster 1 1.391679e+06 1.391682e+06 2.926
2 regular 1 99 99 66 2.500000e+00 0.165 faster 1 1.391684e+06 1.391688e+06 3.116
2 regular 1 100 100 66 2.500000e+00 0.263 faster 1 1.391690e+06 1.391693e+06 3.063
2 irregular 2 1 101 65 2 0.458 faster 1 1.391710e+06 1.391712e+06 2.873
2 irregular 2 2 102 55 1 0.230 faster 0 1.391714e+06 1.391715e+06 1.630
2 irregular 2 3 103 66 2.500000e+00 0.356 slower 0 1.391716e+06 1.391720e+06 3.039
2 irregular 2 4 104 67 2 0.113 faster 1 1.391721e+06 1.391724e+06 2.995
2 irregular 2 5 105 54 3 0.520 slower 1 1.391726e+06 1.391729e+06 3.767
2 irregular 2 6 106 66 3 0.352 slower 0 1.391731e+06 1.391735e+06 3.669
2 irregular 2 7 107 67 2 0.480 faster 1 1.391737e+06 1.391740e+06 3.042
2 irregular 2 8 108 66 2.500000e+00 0.378 slower 0 1.391741e+06 1.391745e+06 3.194
2 irregular 2 9 109 53 1.500000e+00 0.501 faster 0 1.391746e+06 1.391748e+06 2.259
2 irregular 2 10 110 52 1.500000e+00 0.372 faster 0 1.391749e+06 1.391752e+06 2.454
2 irregular 2 11 111 51 3 0.430 slower 1 1.391754e+06 1.391758e+06 4.295
2 irregular 2 12 112 51 2 0.227 faster 0 1.391760e+06 1.391763e+06 2.718
2 irregular 2 13 113 70 1 0.557 faster 1 1.391764e+06 1.391766e+06 1.749
2 irregular 2 14 114 69 2.500000e+00 0.168 faster 1 1.391767e+06 1.391770e+06 3.419
2 irregular 2 15 115 51 3 0.278 slower 1 1.391772e+06 1.391776e+06 3.899
2 irregular 2 16 116 52 3 0.446 faster 0 1.391778e+06 1.391782e+06 3.845
2 irregular 2 17 117 69 2.500000e+00 0.548 faster 1 1.391785e+06 1.391788e+06 3.200
2 irregular 2 18 118 51 2.500000e+00 0.572 slower 1 1.391790e+06 1.391794e+06 3.324
2 irregular 2 19 119 68 1.500000e+00 0.551 slower 0 1.391796e+06 1.391798e+06 2.570
2 irregular 2 20 120 69 1 0.308 slower 0 1.391801e+06 1.391803e+06 1.801
2 irregular 2 21 121 50 1 0.109 slower 1 1.391804e+06 1.391806e+06 1.791
2 irregular 2 22 122 50 2.500000e+00 0.141 slower 1 1.391808e+06 1.391811e+06 3.223
2 irregular 2 23 123 69 3 0.574 slower 0 1.391812e+06 1.391816e+06 3.749
2 irregular 2 24 124 70 2.500000e+00 0.204 slower 0 1.391818e+06 1.391821e+06 3.545
2 irregular 2 25 125 71 1.500000e+00 0.111 slower 0 1.391824e+06 1.391826e+06 2.226
2 irregular 2 26 126 72 3 0.593 faster 1 1.391829e+06 1.391832e+06 3.656
2 irregular 2 27 127 72 1 0.142 faster 1 1.391835e+06 1.391837e+06 1.867
2 irregular 2 28 128 49 3 0.133 slower 1 1.391839e+06 1.391843e+06 3.960
2 irregular 2 29 129 49 2.500000e+00 0.422 slower 1 1.391846e+06 1.391849e+06 3.312
2 irregular 2 30 130 50 1 0.427 faster 0 1.391852e+06 1.391854e+06 1.957
2 irregular 2 31 131 49 2 0.232 faster 0 1.391854e+06 1.391857e+06 2.700
2 irregular 2 32 132 72 1 0.356 faster 1 1.391860e+06 1.391861e+06 1.517
2 irregular 2 33 133 72 2 0.211 faster 1 1.391864e+06 1.391866e+06 2.471
2 irregular 2 34 134 49 3 0.392 slower 1 1.391868e+06 1.391872e+06 3.910
2 irregular 2 35 135 71 1 0.181 faster 1 1.391875e+06 1.391877e+06 1.810
2 irregular 2 36 136 70 1 0.230 faster 1 1.391878e+06 1.391880e+06 1.789
2 irregular 2 37 137 50 3 0.347 slower 1 1.391882e+06 1.391886e+06 3.584
2 irregular 2 38 138 51 1 0.327 slower 1 1.391888e+06 1.391890e+06 2.165
2 irregular 2 39 139 51 2.500000e+00 0.176 slower 1 1.391891e+06 1.391895e+06 3.158
2 irregular 2 40 140 52 1.500000e+00 0.110 faster 0 1.391896e+06 1.391898e+06 1.998
2 irregular 2 41 141 51 2.500000e+00 0.200 faster 0 1.391899e+06 1.391902e+06 3.000
2 irregular 2 42 142 50 3 0.436 faster 0 1.391904e+06 1.391909e+06 4.070
2 irregular 2 43 143 71 3 0.114 faster 1 1.391910e+06 1.391914e+06 3.965
2 irregular 2 44 144 71 1.500000e+00 0.190 faster 1 1.391916e+06 1.391918e+06 2.284
2 irregular 2 45 145 70 2.500000e+00 0.432 slower 0 1.391920e+06 1.391923e+06 3.017
2 irregular 2 46 146 49 2 0.106 slower 1 1.391925e+06 1.391928e+06 2.672
2 irregular 2 47 147 71 1.500000e+00 0.168 slower 0 1.391929e+06 1.391931e+06 2.136
2 irregular 2 48 148 48 1.500000e+00 0.553 faster 0 1.391934e+06 1.391937e+06 2.714
2 irregular 2 49 149 47 2.500000e+00 0.331 faster 0 1.391939e+06 1.391942e+06 2.977
2 irregular 2 50 150 74 2 0.339 faster 1 1.391943e+06 1.391946e+06 3.257
2 irregular 2 51 151 47 1.500000e+00 0.256 slower 1 1.391948e+06 1.391950e+06 2.201
2 irregular 2 52 152 73 3 0.348 slower 0 1.391952e+06 1.391956e+06 4.188
2 irregular 2 53 153 74 2.500000e+00 0.119 slower 0 1.391958e+06 1.391961e+06 3.492
2 irregular 2 54 154 75 2 0.543 faster 1 1.391964e+06 1.391967e+06 2.683
2 irregular 2 55 155 74 3 0.242 faster 1 1.391970e+06 1.391973e+06 3.695
2 irregular 2 56 156 74 1 0.342 faster 1 1.391976e+06 1.391978e+06 1.676
2 irregular 2 57 157 73 2 0.400 faster 1 1.391980e+06 1.391983e+06 2.869
2 irregular 2 58 158 73 2 0.479 slower 0 1.391985e+06 1.391988e+06 2.639
2 irregular 2 59 159 74 1.500000e+00 0.155 slower 0 1.391990e+06 1.391992e+06 2.458
2 irregular 2 60 160 45 2.500000e+00 0.504 slower 1 1.391994e+06 1.391998e+06 3.088
2 irregular 2 61 161 46 2 0.351 slower 1 1.392000e+06 1.392002e+06 2.573
2 irregular 2 62 162 46 2 0.160 slower 1 1.392004e+06 1.392006e+06 2.561
2 irregular 2 63 163 47 1 0.253 slower 1 1.392009e+06 1.392010e+06 1.594
2 irregular 2 64 164 73 2.500000e+00 0.297 faster 1 1.392012e+06 1.392015e+06 3.044
2 irregular 2 65 165 48 2.500000e+00 0.310 slower 1 1.392017e+06 1.392020e+06 3.403
2 irregular 2 66 166 48 2 0.461 slower 1 1.392022e+06 1.392025e+06 2.675
2 irregular 2 67 167 71 1.500000e+00 0.343 faster 1 1.392026e+06 1.392028e+06 2.257
2 irregular 2 68 168 71 3 0.460 faster 1 1.392030e+06 1.392034e+06 3.579
2 irregular 2 69 169 50 1.500000e+00 0.207 faster 0 1.392036e+06 1.392038e+06 2.282
2 irregular 2 70 170 71 1.500000e+00 0.579 faster 1 1.392040e+06 1.392043e+06 2.439
2 irregular 2 71 171 49 2.500000e+00 0.329 faster 0 1.392044e+06 1.392048e+06 3.500
2 irregular 2 72 172 48 2 0.507 faster 0 1.392050e+06 1.392053e+06 2.932
2 irregular 2 73 173 73 1 0.599 faster 1 1.392055e+06 1.392057e+06 2.573
2 irregular 2 74 174 48 2 0.575 slower 1 1.392059e+06 1.392062e+06 2.564
2 irregular 2 75 175 72 1.500000e+00 0.413 faster 1 1.392063e+06 1.392065e+06 2.293
2 irregular 2 76 176 71 3 0.312 faster 1 1.392067e+06 1.392070e+06 3.579
2 irregular 2 77 177 71 2 0.543 faster 1 1.392073e+06 1.392076e+06 3.188
2 irregular 2 78 178 70 2.500000e+00 0.243 slower 0 1.392078e+06 1.392081e+06 3.123
2 irregular 2 79 179 49 1.500000e+00 0.506 slower 1 1.392082e+06 1.392085e+06 2.139
2 irregular 2 80 180 49 1.500000e+00 0.198 slower 1 1.392087e+06 1.392089e+06 2.075
2 irregular 2 81 181 50 2 0.427 slower 1 1.392090e+06 1.392093e+06 2.694
2 irregular 2 82 182 50 1 0.149 slower 1 1.392095e+06 1.392097e+06 2.012
2 irregular 2 83 183 69 3 0.177 slower 0 1.392100e+06 1.392104e+06 3.775
2 irregular 2 84 184 50 2 0.145 slower 1 1.392107e+06 1.392110e+06 2.749
2 irregular 2 85 185 50 1 0.207 slower 1 1.392111e+06 1.392114e+06 2.265
2 irregular 2 86 186 51 3 0.393 slower 1 1.392116e+06 1.392120e+06 3.937
2 irregular 2 87 187 69 1.500000e+00 0.493 faster 1 1.392122e+06 1.392125e+06 2.881
2 irregular 2 88 188 52 1.500000e+00 0.220 faster 0 1.392127e+06 1.392129e+06 2.518
2 irregular 2 89 189 51 1.500000e+00 0.434 faster 0 1.392131e+06 1.392134e+06 2.727
2 irregular 2 90 190 50 2.500000e+00 0.281 faster 0 1.392136e+06 1.392140e+06 3.734
2 irregular 2 91 191 71 2 0.442 faster 1 1.392142e+06 1.392145e+06 2.668
2 irregular 2 92 192 49 1 0.490 slower 1 1.392147e+06 1.392149e+06 2.026
2 irregular 2 93 193 70 1 0.573 faster 1 1.392151e+06 1.392153e+06 1.881
2 irregular 2 94 194 70 3 0.527 slower 0 1.392154e+06 1.392158e+06 3.650
2 irregular 2 95 195 49 1 0.320 faster 0 1.392160e+06 1.392162e+06 2.044
2 irregular 2 96 196 48 1 0.428 slower 1 1.392167e+06 1.392169e+06 1.745
2 irregular 2 97 197 71 1.500000e+00 0.437 slower 0 1.392172e+06 1.392174e+06 2.429
2 irregular 2 98 198 72 2.500000e+00 0.300 faster 1 1.392177e+06 1.392180e+06 3.194
2 irregular 2 99 199 48 3 0.158 slower 1 1.392182e+06 1.392186e+06 3.976
2 irregular 2 100 200 71 1 0.584 faster 1 1.392189e+06 1.392190e+06 1.598
2 regular 3 1 201 71 1 0.103 faster 1 1.392209e+06 1.392210e+06 1.849
2 regular 3 2 202 50 1 0.345 slower 1 1.392212e+06 1.392213e+06 1.616
2 regular 3 3 203 50 1 0.587 faster 0 1.392215e+06 1.392216e+06 1.741
2 regular 3 4 204 71 1 0.192 faster 1 1.392218e+06 1.392219e+06 1.467
2 regular 3 5 205 50 1 0.128 slower 1 1.392220e+06 1.392222e+06 1.616
2 regular 3 6 206 70 1 0.459 faster 1 1.392223e+06 1.392225e+06 1.698
2 regular 3 7 207 69 1 0.279 faster 1 1.392227e+06 1.392228e+06 1.555
2 regular 3 8 208 51 1 0.438 faster 0 1.392230e+06 1.392232e+06 1.425
2 regular 3 9 209 70 1 0.471 faster 1 1.392234e+06 1.392235e+06 1.524
2 regular 3 10 210 69 1 0.451 faster 1 1.392237e+06 1.392238e+06 1.481
2 regular 3 11 211 69 1 0.171 faster 1 1.392240e+06 1.392242e+06 1.476
2 regular 3 12 212 68 1 0.544 faster 1 1.392244e+06 1.392245e+06 1.413
2 regular 3 13 213 68 1 0.452 faster 1 1.392247e+06 1.392249e+06 1.451
2 regular 3 14 214 67 1 0.247 faster 1 1.392250e+06 1.392252e+06 1.461
2 regular 3 15 215 53 1 0.549 faster 0 1.392263e+06 1.392265e+06 1.603
2 regular 3 16 216 68 1 0.487 faster 1 1.392266e+06 1.392268e+06 1.614
2 regular 3 17 217 53 1 0.180 faster 0 1.392269e+06 1.392270e+06 1.527
2 regular 3 18 218 68 1 0.394 faster 1 1.392271e+06 1.392273e+06 1.557
2 regular 3 19 219 68 1 0.465 faster 1 1.392275e+06 1.392276e+06 1.423
2 regular 3 20 220 67 1 0.596 faster 1 1.392278e+06 1.392280e+06 1.813
2 regular 3 21 221 53 1 0.149 faster 0 1.392282e+06 1.392283e+06 1.548
2 regular 3 22 222 68 1 0.455 faster 1 1.392285e+06 1.392287e+06 1.512
2 regular 3 23 223 53 1 0.147 faster 0 1.392289e+06 1.392290e+06 1.539
2 regular 3 24 224 68 1 0.373 faster 1 1.392292e+06 1.392294e+06 1.650
2 regular 3 25 225 68 1 0.305 faster 1 1.392296e+06 1.392297e+06 1.613
2 regular 3 26 226 53 1 0.318 slower 1 1.392300e+06 1.392301e+06 1.650
2 regular 3 27 227 67 1 0.533 faster 1 1.392303e+06 1.392304e+06 1.611
2 regular 3 28 228 54 1 0.401 faster 0 1.392306e+06 1.392308e+06 1.625
2 regular 3 29 229 53 1 0.356 faster 0 1.392309e+06 1.392310e+06 1.531
2 regular 3 30 230 52 1 0.222 faster 0 1.392312e+06 1.392314e+06 1.453
2 regular 3 31 231 51 1 0.408 faster 0 1.392316e+06 1.392317e+06 1.481
2 regular 3 32 232 50 1 0.157 slower 1 1.392319e+06 1.392321e+06 1.681
2 regular 3 33 233 50 1 0.579 slower 1 1.392323e+06 1.392324e+06 1.598
2 regular 3 34 234 51 1 0.453 slower 1 1.392326e+06 1.392328e+06 1.523
2 regular 3 35 235 69 1 0.243 faster 1 1.392330e+06 1.392331e+06 1.612
2 regular 3 36 236 52 1 0.276 slower 1 1.392334e+06 1.392335e+06 1.701
2 regular 3 37 237 52 1 0.166 none 2 1.392337e+06 1.392341e+06 4.000
2 regular 3 38 238 52 1 0.329 slower 1 1.392342e+06 1.392344e+06 2.297
2 regular 3 39 239 67 1 0.157 faster 1 1.392346e+06 1.392348e+06 1.636
2 regular 3 40 240 53 1 0.413 faster 0 1.392350e+06 1.392352e+06 1.626
2 regular 3 41 241 68 1 0.358 faster 1 1.392354e+06 1.392355e+06 1.547
2 regular 3 42 242 67 1 0.297 faster 1 1.392357e+06 1.392358e+06 1.520
2 regular 3 43 243 53 1 0.596 slower 1 1.392360e+06 1.392362e+06 1.461
2 regular 3 44 244 66 1 0.560 slower 0 1.392364e+06 1.392366e+06 2.009
2 regular 3 45 245 53 1 0.320 slower 1 1.392368e+06 1.392370e+06 1.718
2 regular 3 46 246 53 1 0.177 faster 0 1.392372e+06 1.392374e+06 1.500
2 regular 3 47 247 52 1 0.432 slower 1 1.392376e+06 1.392378e+06 1.683
2 regular 3 48 248 67 1 0.574 faster 1 1.392380e+06 1.392381e+06 1.709
2 regular 3 49 249 67 1 0.303 faster 1 1.392383e+06 1.392385e+06 1.903
2 regular 3 50 250 66 1 0.163 faster 1 1.392387e+06 1.392389e+06 1.613
2 regular 3 51 251 66 1 0.308 slower 0 1.392391e+06 1.392393e+06 1.852
2 regular 3 52 252 67 1 0.209 slower 0 1.392395e+06 1.392397e+06 1.873
2 regular 3 53 253 52 1 0.417 slower 1 1.392398e+06 1.392400e+06 1.733
2 regular 3 54 254 53 1 0.486 slower 1 1.392402e+06 1.392404e+06 1.640
2 regular 3 55 255 53 1 0.483 slower 1 1.392406e+06 1.392408e+06 1.774
2 regular 3 56 256 54 1 0.558 slower 1 1.392410e+06 1.392412e+06 1.608
2 regular 3 57 257 66 1 0.200 faster 1 1.392414e+06 1.392416e+06 1.567
2 regular 3 58 258 65 1 0.293 faster 1 1.392418e+06 1.392420e+06 1.567
2 regular 3 59 259 55 1 0.477 faster 0 1.392421e+06 1.392422e+06 1.664
2 regular 3 60 260 54 1 0.464 faster 0 1.392426e+06 1.392427e+06 1.561
2 regular 3 61 261 67 1 0.447 faster 1 1.392429e+06 1.392430e+06 1.506
2 regular 3 62 262 66 1 0.483 faster 1 1.392432e+06 1.392434e+06 1.378
2 regular 3 63 263 54 1 0.159 faster 0 1.392435e+06 1.392437e+06 1.523
2 regular 3 64 264 67 1 0.592 faster 1 1.392439e+06 1.392441e+06 1.417
2 regular 3 65 265 66 1 0.293 faster 1 1.392443e+06 1.392444e+06 1.398
2 regular 3 66 266 54 1 0.225 faster 0 1.392446e+06 1.392447e+06 1.555
2 regular 3 67 267 53 1 0.535 slower 1 1.392449e+06 1.392451e+06 1.553
2 regular 3 68 268 54 1 0.397 slower 1 1.392453e+06 1.392454e+06 1.556
2 regular 3 69 269 66 1 0.501 faster 1 1.392456e+06 1.392458e+06 1.760
2 regular 3 70 270 55 1 0.125 slower 1 1.392460e+06 1.392462e+06 1.788
2 regular 3 71 271 65 1 0.417 slower 0 1.392464e+06 1.392465e+06 1.605
2 regular 3 72 272 54 1 0.285 faster 0 1.392468e+06 1.392469e+06 1.579
2 regular 3 73 273 53 1 0.106 faster 0 1.392471e+06 1.392473e+06 1.987
2 regular 3 74 274 68 1 0.249 faster 1 1.392474e+06 1.392476e+06 1.744
2 regular 3 75 275 67 1 0.569 faster 1 1.392478e+06 1.392480e+06 1.649
2 regular 3 76 276 67 1 0.217 faster 1 1.392482e+06 1.392484e+06 1.629
2 regular 3 77 277 54 1 0.400 faster 0 1.392486e+06 1.392488e+06 1.834
2 regular 3 78 278 53 1 0.387 faster 0 1.392489e+06 1.392491e+06 2.202
2 regular 3 79 279 52 1 0.596 slower 1 1.392493e+06 1.392495e+06 1.489
2 regular 3 80 280 68 1 0.383 faster 1 1.392497e+06 1.392499e+06 1.517
2 regular 3 81 281 53 1 0.469 faster 0 1.392501e+06 1.392503e+06 1.649
2 regular 3 82 282 52 1 0.372 slower 1 1.392506e+06 1.392507e+06 1.519
2 regular 3 83 283 52 1 0.132 slower 1 1.392509e+06 1.392510e+06 1.627
2 regular 3 84 284 67 1 0.261 faster 1 1.392513e+06 1.392515e+06 1.582
2 regular 3 85 285 67 1 0.409 faster 1 1.392517e+06 1.392518e+06 1.513
2 regular 3 86 286 54 1 0.544 slower 1 1.392520e+06 1.392522e+06 1.593
2 regular 3 87 287 54 1 0.247 slower 1 1.392524e+06 1.392525e+06 1.377
2 regular 3 88 288 65 1 0.131 faster 1 1.392526e+06 1.392528e+06 1.521
2 regular 3 89 289 55 1 0.535 slower 1 1.392530e+06 1.392531e+06 1.618
2 regular 3 90 290 64 1 0.287 faster 1 1.392533e+06 1.392534e+06 1.528
2 regular 3 91 291 56 1 0.388 faster 0 1.392536e+06 1.392538e+06 1.529
2 regular 3 92 292 65 1 0.560 slower 0 1.392540e+06 1.392541e+06 1.480
2 regular 3 93 293 54 1 0.537 slower 1 1.392544e+06 1.392546e+06 1.491
2 regular 3 94 294 65 1 0.492 faster 1 1.392548e+06 1.392549e+06 1.529
2 regular 3 95 295 65 1 0.414 faster 1 1.392550e+06 1.392552e+06 1.691
2 regular 3 96 296 64 1 0.137 faster 1 1.392554e+06 1.392556e+06 1.550
2 regular 3 97 297 56 1 0.343 faster 0 1.392558e+06 1.392559e+06 1.575
2 regular 3 98 298 65 1 0.448 slower 0 1.392561e+06 1.392563e+06 1.561
2 regular 3 99 299 66 1 0.316 faster 1 1.392565e+06 1.392567e+06 1.916
2 regular 3 100 300 55 1 0.389 faster 0 1.392569e+06 1.392571e+06 1.912
2 irregular 4 1 301 54 2.500000e+00 0.118 slower 1 1.392586e+06 1.392590e+06 3.947
2 irregular 4 2 302 54 3 0.564 slower 1 1.392591e+06 1.392595e+06 4.154
2 irregular 4 3 303 65 1.500000e+00 0.158 faster 1 1.392596e+06 1.392599e+06 2.099
2 irregular 4 4 304 65 2 0.500 slower 0 1.392600e+06 1.392603e+06 2.600
2 irregular 4 5 305 54 3 0.239 slower 1 1.392605e+06 1.392608e+06 3.470
2 irregular 4 6 306 55 1.500000e+00 0.354 slower 1 1.392611e+06 1.392613e+06 2.047
2 irregular 4 7 307 65 2.500000e+00 0.148 slower 0 1.392616e+06 1.392619e+06 3.285
2 irregular 4 8 308 66 3 0.284 slower 0 1.392620e+06 1.392625e+06 4.382
2 irregular 4 9 309 53 1 0.304 faster 0 1.392627e+06 1.392629e+06 1.387
2 irregular 4 10 310 68 2 0.298 slower 0 1.392631e+06 1.392634e+06 2.596
2 irregular 4 11 311 69 1 0.568 faster 1 1.392636e+06 1.392638e+06 1.667
2 irregular 4 12 312 68 2 0.142 slower 0 1.392639e+06 1.392642e+06 2.526
2 irregular 4 13 313 69 1 0.556 slower 0 1.392644e+06 1.392646e+06 2.074
2 irregular 4 14 314 70 2.500000e+00 0.323 slower 0 1.392648e+06 1.392651e+06 3.406
2 irregular 4 15 315 71 2 0.304 faster 1 1.392654e+06 1.392656e+06 2.768
2 irregular 4 16 316 71 2 0.179 faster 1 1.392659e+06 1.392662e+06 2.927
2 irregular 4 17 317 50 2 0.469 slower 1 1.392664e+06 1.392667e+06 2.785
2 irregular 4 18 318 70 3 0.223 faster 1 1.392669e+06 1.392675e+06 5.944
2 irregular 4 19 319 69 2 0.173 faster 1 1.392676e+06 1.392679e+06 2.899
2 irregular 4 20 320 51 2.500000e+00 0.187 slower 1 1.392681e+06 1.392684e+06 2.987
2 irregular 4 21 321 52 1 0.512 faster 0 1.392686e+06 1.392688e+06 1.753
2 irregular 4 22 322 51 3 0.476 faster 0 1.392691e+06 1.392695e+06 4.262
2 irregular 4 23 323 70 1.500000e+00 0.110 slower 0 1.392697e+06 1.392699e+06 2.186
2 irregular 4 24 324 49 1.500000e+00 0.571 slower 1 1.392701e+06 1.392703e+06 2.157
2 irregular 4 25 325 71 2.500000e+00 0.246 faster 1 1.392705e+06 1.392708e+06 2.961
2 irregular 4 26 326 70 2.500000e+00 0.490 faster 1 1.392709e+06 1.392712e+06 2.877
2 irregular 4 27 327 70 1 0.123 faster 1 1.392714e+06 1.392715e+06 1.609
2 irregular 4 28 328 51 3 0.393 slower 1 1.392718e+06 1.392721e+06 3.587
2 irregular 4 29 329 69 1.500000e+00 0.355 slower 0 1.392723e+06 1.392726e+06 2.550
2 irregular 4 30 330 70 1.500000e+00 0.504 faster 1 1.392728e+06 1.392731e+06 2.283
2 irregular 4 31 331 51 1.500000e+00 0.383 slower 1 1.392732e+06 1.392735e+06 2.235
2 irregular 4 32 332 69 3 0.509 slower 0 1.392736e+06 1.392740e+06 3.623
2 irregular 4 33 333 50 2.500000e+00 0.551 slower 1 1.392743e+06 1.392747e+06 3.747
2 irregular 4 34 334 69 3 0.332 slower 0 1.392750e+06 1.392754e+06 3.505
2 irregular 4 35 335 50 1 0.124 slower 1 1.392755e+06 1.392757e+06 1.831
2 irregular 4 36 336 70 2 0.161 slower 0 1.392759e+06 1.392762e+06 2.913
2 irregular 4 37 337 71 1.500000e+00 0.176 faster 1 1.392764e+06 1.392766e+06 2.058
2 irregular 4 38 338 50 2 0.507 slower 1 1.392768e+06 1.392771e+06 2.667
2 irregular 4 39 339 50 3 0.513 slower 1 1.392773e+06 1.392777e+06 3.627
2 irregular 4 40 340 51 3 0.138 slower 1 1.392779e+06 1.392783e+06 3.964
2 irregular 4 41 341 69 1 0.315 faster 1 1.392784e+06 1.392786e+06 1.743
2 irregular 4 42 342 68 3 0.536 slower 0 1.392788e+06 1.392792e+06 3.473
2 irregular 4 43 343 51 1 0.581 slower 1 1.392795e+06 1.392796e+06 1.633
2 irregular 4 44 344 69 1.500000e+00 0.464 slower 0 1.392799e+06 1.392801e+06 2.341
2 irregular 4 45 345 70 2.500000e+00 0.362 faster 1 1.392803e+06 1.392806e+06 3.009
2 irregular 4 46 346 69 2.500000e+00 0.274 faster 1 1.392808e+06 1.392812e+06 3.753
2 irregular 4 47 347 69 1.500000e+00 0.405 slower 0 1.392814e+06 1.392816e+06 2.166
2 irregular 4 48 348 50 3 0.199 slower 1 1.392819e+06 1.392823e+06 3.636
2 irregular 4 49 349 51 1.500000e+00 0.343 slower 1 1.392825e+06 1.392828e+06 2.277
2 irregular 4 50 350 69 3 0.158 slower 0 1.392830e+06 1.392834e+06 3.606
2 irregular 4 51 351 50 1.500000e+00 0.539 slower 1 1.392838e+06 1.392840e+06 2.184
2 irregular 4 52 352 69 1.500000e+00 0.476 faster 1 1.392843e+06 1.392845e+06 2.004
2 irregular 4 53 353 51 1.500000e+00 0.312 faster 0 1.392846e+06 1.392849e+06 2.311
2 irregular 4 54 354 50 2.500000e+00 0.500 slower 1 1.392851e+06 1.392854e+06 2.967
2 irregular 4 55 355 51 2 0.335 slower 1 1.392856e+06 1.392859e+06 2.530
2 irregular 4 56 356 69 1 0.593 faster 1 1.392863e+06 1.392865e+06 1.661
2 irregular 4 57 357 68 2 0.525 faster 1 1.392867e+06 1.392870e+06 2.575
2 irregular 4 58 358 68 3 0.125 faster 1 1.392872e+06 1.392876e+06 3.691
2 irregular 4 59 359 53 1 0.262 faster 0 1.392878e+06 1.392879e+06 1.973
2 irregular 4 60 360 52 2.500000e+00 0.433 slower 1 1.392881e+06 1.392885e+06 3.743
2 irregular 4 61 361 52 1.500000e+00 0.495 faster 0 1.392888e+06 1.392890e+06 2.398
2 irregular 4 62 362 51 2.500000e+00 0.149 faster 0 1.392892e+06 1.392896e+06 3.758
2 irregular 4 63 363 50 1 0.440 faster 0 1.392899e+06 1.392900e+06 1.941
2 irregular 4 64 364 71 1 0.286 faster 1 1.392901e+06 1.392903e+06 1.449
2 irregular 4 65 365 50 2.500000e+00 0.204 slower 1 1.392905e+06 1.392907e+06 2.918
2 irregular 4 66 366 70 1.500000e+00 0.508 slower 0 1.392909e+06 1.392912e+06 2.644
2 irregular 4 67 367 49 2 0.551 slower 1 1.392914e+06 1.392917e+06 2.950
2 irregular 4 68 368 50 1.500000e+00 0.566 faster 0 1.392920e+06 1.392923e+06 2.205
2 irregular 4 69 369 49 2 0.108 faster 0 1.392925e+06 1.392928e+06 2.906
2 irregular 4 70 370 72 1 0.503 faster 1 1.392932e+06 1.392934e+06 1.554
2 irregular 4 71 371 48 2.500000e+00 0.167 none 2 1.392937e+06 1.392942e+06 5.500
2 irregular 4 72 372 48 2 0.592 slower 1 1.392944e+06 1.392946e+06 2.683
2 irregular 4 73 373 71 3 0.175 faster 1 1.392948e+06 1.392951e+06 3.529
2 irregular 4 74 374 71 2.500000e+00 0.364 faster 1 1.392953e+06 1.392956e+06 2.952
2 irregular 4 75 375 70 1 0.310 faster 1 1.392959e+06 1.392961e+06 2.142
2 irregular 4 76 376 70 2.500000e+00 0.467 slower 0 1.392963e+06 1.392966e+06 3.043
2 irregular 4 77 377 49 1 0.454 slower 1 1.392968e+06 1.392970e+06 1.712
2 irregular 4 78 378 50 2 0.272 slower 1 1.392971e+06 1.392974e+06 2.536
2 irregular 4 79 379 50 2 0.240 slower 1 1.392976e+06 1.392978e+06 2.762
2 irregular 4 80 380 51 2.500000e+00 0.500 faster 0 1.392980e+06 1.392983e+06 2.932
2 irregular 4 81 381 70 3 0.485 faster 1 1.392986e+06 1.392989e+06 3.611
2 irregular 4 82 382 50 1 0.399 faster 0 1.392992e+06 1.392993e+06 1.569
2 irregular 4 83 383 49 1 0.435 slower 1 1.392996e+06 1.392998e+06 1.740
2 irregular 4 84 384 70 2 0.269 faster 1 1.392999e+06 1.393001e+06 2.633
2 irregular 4 85 385 70 2.500000e+00 0.488 slower 0 1.393003e+06 1.393006e+06 3.061
2 irregular 4 86 386 71 1 0.297 faster 1 1.393008e+06 1.393010e+06 1.800
2 irregular 4 87 387 50 2 0.180 slower 1 1.393011e+06 1.393013e+06 2.550
2 irregular 4 88 388 50 1.500000e+00 0.217 faster 0 1.393014e+06 1.393017e+06 2.313
2 irregular 4 89 389 71 3 0.219 faster 1 1.393018e+06 1.393022e+06 3.560
2 irregular 4 90 390 70 1 0.404 faster 1 1.393026e+06 1.393028e+06 1.753
2 irregular 4 91 391 70 1.500000e+00 0.370 faster 1 1.393031e+06 1.393034e+06 3.895
2 irregular 4 92 392 51 3 0.487 slower 1 1.393036e+06 1.393040e+06 3.551
2 irregular 4 93 393 51 3 0.336 slower 1 1.393043e+06 1.393047e+06 3.507
2 irregular 4 94 394 52 1 0.315 slower 1 1.393049e+06 1.393051e+06 1.601
2 irregular 4 95 395 52 2 0.469 slower 1 1.393054e+06 1.393057e+06 3.038
2 irregular 4 96 396 53 1.500000e+00 0.174 slower 1 1.393061e+06 1.393063e+06 2.291
2 irregular 4 97 397 67 2 0.321 faster 1 1.393065e+06 1.393067e+06 2.572
2 irregular 4 98 398 54 3 0.190 slower 1 1.393069e+06 1.393073e+06 4.040
2 irregular 4 99 399 66 2.500000e+00 0.541 slower 0 1.393075e+06 1.393079e+06 3.433
2 irregular 4 100 400 53 2.500000e+00 0.267 faster 0 1.393081e+06 1.393085e+06 3.876
2 regular 5 1 401 68 3 0.334 faster 1 1.393103e+06 1.393107e+06 3.523
2 regular 5 2 402 67 3 0.242 faster 1 1.393108e+06 1.393111e+06 3.507
2 regular 5 3 403 67 3 0.376 faster 1 1.393112e+06 1.393116e+06 3.502
2 regular 5 4 404 54 3 0.237 faster 0 1.393118e+06 1.393122e+06 3.567
2 regular 5 5 405 53 3 0.317 slower 1 1.393125e+06 1.393128e+06 3.617
2 regular 5 6 406 67 3 0.421 faster 1 1.393130e+06 1.393134e+06 3.893
2 regular 5 7 407 66 3 0.548 faster 1 1.393136e+06 1.393140e+06 4.030
2 regular 5 8 408 54 3 0.443 faster 0 1.393142e+06 1.393145e+06 3.603
2 regular 5 9 409 67 3 0.583 faster 1 1.393148e+06 1.393151e+06 3.558
2 regular 5 10 410 66 3 0.187 faster 1 1.393153e+06 1.393157e+06 4.146
2 regular 5 11 411 66 3 0.221 faster 1 1.393159e+06 1.393164e+06 4.166
2 regular 5 12 412 55 3 0.244 slower 1 1.393165e+06 1.393169e+06 3.480
2 regular 5 13 413 65 3 0.520 faster 1 1.393170e+06 1.393174e+06 3.555
2 regular 5 14 414 64 3 0.127 faster 1 1.393176e+06 1.393180e+06 3.629
2 regular 5 15 415 64 3 0.265 faster 1 1.393182e+06 1.393186e+06 3.505
2 regular 5 16 416 57 3 0.159 faster 0 1.393191e+06 1.393195e+06 4.178
2 regular 5 17 417 56 3 0.514 slower 1 1.393198e+06 1.393201e+06 3.577
2 regular 5 18 418 56 3 0.109 faster 0 1.393203e+06 1.393207e+06 3.636
2 regular 5 19 419 55 3 0.357 slower 1 1.393210e+06 1.393213e+06 3.373
2 regular 5 20 420 64 3 0.485 faster 1 1.393215e+06 1.393219e+06 3.611
2 regular 5 21 421 56 3 0.324 slower 1 1.393222e+06 1.393226e+06 3.602
2 regular 5 22 422 63 3 0.354 slower 0 1.393229e+06 1.393232e+06 3.614
2 regular 5 23 423 64 3 0.288 faster 1 1.393234e+06 1.393238e+06 3.727
2 regular 5 24 424 56 3 0.364 slower 1 1.393240e+06 1.393244e+06 3.669
2 regular 5 25 425 63 3 0.191 slower 0 1.393246e+06 1.393250e+06 3.608
2 regular 5 26 426 64 3 0.577 faster 1 1.393252e+06 1.393257e+06 4.567
2 regular 5 27 427 56 3 0.464 faster 0 1.393258e+06 1.393263e+06 4.244
2 regular 5 28 428 55 3 0.494 slower 1 1.393267e+06 1.393271e+06 4.045
2 regular 5 29 429 64 3 0.539 faster 1 1.393272e+06 1.393276e+06 3.665
2 regular 5 30 430 64 3 0.508 faster 1 1.393278e+06 1.393282e+06 3.839
2 regular 5 31 431 63 3 0.464 slower 0 1.393283e+06 1.393286e+06 3.618
2 regular 5 32 432 56 3 0.386 slower 1 1.393287e+06 1.393291e+06 3.642
2 regular 5 33 433 56 3 0.457 slower 1 1.393292e+06 1.393296e+06 3.721
2 regular 5 34 434 63 3 0.284 slower 0 1.393297e+06 1.393301e+06 4.166
2 regular 5 35 435 56 3 0.254 faster 0 1.393302e+06 1.393305e+06 3.686
2 regular 5 36 436 55 3 0.145 slower 1 1.393306e+06 1.393310e+06 3.584
2 regular 5 37 437 55 3 0.333 faster 0 1.393314e+06 1.393318e+06 3.898
2 regular 5 38 438 54 3 0.155 faster 0 1.393322e+06 1.393326e+06 3.830
2 regular 5 39 439 53 3 0.134 slower 1 1.393329e+06 1.393332e+06 3.691
2 regular 5 40 440 54 3 0.481 faster 0 1.393335e+06 1.393339e+06 3.501
2 regular 5 41 441 53 3 0.330 faster 0 1.393343e+06 1.393347e+06 3.970
2 regular 5 42 442 52 3 0.409 faster 0 1.393349e+06 1.393353e+06 3.832
2 regular 5 43 443 69 3 0.522 faster 1 1.393354e+06 1.393358e+06 3.827
2 regular 5 44 444 51 3 0.469 slower 1 1.393360e+06 1.393365e+06 4.966
2 regular 5 45 445 68 3 0.489 faster 1 1.393367e+06 1.393371e+06 3.725
2 regular 5 46 446 52 3 0.281 slower 1 1.393373e+06 1.393377e+06 3.805
2 regular 5 47 447 53 3 0.542 slower 1 1.393379e+06 1.393382e+06 3.603
2 regular 5 48 448 53 3 0.406 slower 1 1.393385e+06 1.393388e+06 3.854
2 regular 5 49 449 54 3 0.396 faster 0 1.393390e+06 1.393393e+06 3.605
2 regular 5 50 450 67 3 0.238 faster 1 1.393396e+06 1.393399e+06 3.531
2 regular 5 51 451 67 3 0.410 faster 1 1.393404e+06 1.393407e+06 3.482
2 regular 5 52 452 54 3 0.388 faster 0 1.393412e+06 1.393415e+06 3.512
2 regular 5 53 453 67 3 0.556 faster 1 1.393417e+06 1.393421e+06 4.036
2 regular 5 54 454 53 3 0.141 faster 0 1.393421e+06 1.393425e+06 3.898
2 regular 5 55 455 52 3 0.203 faster 0 1.393426e+06 1.393430e+06 3.650
2 regular 5 56 456 51 3 0.404 slower 1 1.393432e+06 1.393436e+06 3.474
2 regular 5 57 457 68 3 0.322 faster 1 1.393437e+06 1.393441e+06 3.779
2 regular 5 58 458 52 3 0.373 slower 1 1.393445e+06 1.393448e+06 3.742
2 regular 5 59 459 53 3 0.320 slower 1 1.393450e+06 1.393454e+06 3.859
2 regular 5 60 460 53 3 0.583 slower 1 1.393456e+06 1.393459e+06 3.473
2 regular 5 61 461 54 3 0.599 slower 1 1.393464e+06 1.393468e+06 3.907
2 regular 5 62 462 66 3 0.413 faster 1 1.393470e+06 1.393474e+06 3.468
2 regular 5 63 463 55 3 0.308 slower 1 1.393475e+06 1.393479e+06 3.845
2 regular 5 64 464 65 3 0.299 faster 1 1.393481e+06 1.393484e+06 3.493
2 regular 5 65 465 56 3 0.507 faster 0 1.393485e+06 1.393489e+06 3.496
2 regular 5 66 466 65 3 0.196 faster 1 1.393491e+06 1.393494e+06 3.600
2 regular 5 67 467 65 3 0.574 faster 1 1.393496e+06 1.393500e+06 3.806
2 regular 5 68 468 64 3 0.523 faster 1 1.393502e+06 1.393505e+06 3.707
2 regular 5 69 469 64 3 0.218 faster 1 1.393507e+06 1.393511e+06 3.484
2 regular 5 70 470 63 3 0.316 faster 1 1.393512e+06 1.393516e+06 3.560
2 regular 5 71 471 57 3 0.349 faster 0 1.393518e+06 1.393522e+06 3.964
2 regular 5 72 472 64 3 0.130 slower 0 1.393523e+06 1.393527e+06 3.436
2 regular 5 73 473 65 3 0.558 slower 0 1.393528e+06 1.393532e+06 3.812
2 regular 5 74 474 66 3 0.413 slower 0 1.393535e+06 1.393538e+06 3.823
2 regular 5 75 475 53 3 0.116 faster 0 1.393541e+06 1.393544e+06 3.652
2 regular 5 76 476 68 3 0.103 faster 1 1.393546e+06 1.393550e+06 3.572
2 regular 5 77 477 53 3 0.369 slower 1 1.393555e+06 1.393559e+06 4.284
2 regular 5 78 478 53 3 0.401 slower 1 1.393560e+06 1.393564e+06 3.773
2 regular 5 79 479 66 3 0.171 faster 1 1.393566e+06 1.393570e+06 3.441
2 regular 5 80 480 54 3 0.150 faster 0 1.393573e+06 1.393576e+06 3.830
2 regular 5 81 481 53 3 0.295 faster 0 1.393577e+06 1.393581e+06 3.816
2 regular 5 82 482 68 3 0.554 faster 1 1.393583e+06 1.393586e+06 3.564
2 regular 5 83 483 67 3 0.119 faster 1 1.393587e+06 1.393590e+06 3.482
2 regular 5 84 484 67 3 0.352 slower 0 1.393595e+06 1.393599e+06 3.512
2 regular 5 85 485 68 3 0.268 faster 1 1.393600e+06 1.393604e+06 3.695
2 regular 5 86 486 53 3 0.179 faster 0 1.393604e+06 1.393608e+06 3.572
2 regular 5 87 487 68 3 0.443 faster 1 1.393609e+06 1.393613e+06 3.535
2 regular 5 88 488 52 3 0.148 slower 1 1.393614e+06 1.393618e+06 3.743
2 regular 5 89 489 53 3 0.427 slower 1 1.393619e+06 1.393622e+06 3.748
2 regular 5 90 490 67 3 0.565 slower 0 1.393626e+06 1.393630e+06 3.848
2 regular 5 91 491 52 3 0.447 slower 1 1.393632e+06 1.393636e+06 3.513
2 regular 5 92 492 67 3 0.204 faster 1 1.393637e+06 1.393641e+06 3.669
2 regular 5 93 493 53 3 0.119 faster 0 1.393642e+06 1.393646e+06 3.785
2 regular 5 94 494 68 3 0.475 faster 1 1.393647e+06 1.393651e+06 3.802
2 regular 5 95 495 67 3 0.531 faster 1 1.393652e+06 1.393656e+06 3.379
2 regular 5 96 496 67 3 0.161 faster 1 1.393657e+06 1.393660e+06 3.443
2 regular 5 97 497 66 3 0.487 faster 1 1.393662e+06 1.393666e+06 3.330
2 regular 5 98 498 66 3 0.176 faster 1 1.393668e+06 1.393672e+06 3.459
2 regular 5 99 499 55 3 0.476 faster 0 1.393674e+06 1.393677e+06 3.514
2 regular 5 100 500 54 3 0.355 faster 0 1.393679e+06 1.393684e+06 5.078
2 irregular 6 1 501 54 1 0.240 faster 0 1.459764e+06 1.459766e+06 1.712
2 irregular 6 2 502 52 1.500000e+00 0.146 faster 0 1.459767e+06 1.459769e+06 2.063
2 irregular 6 3 503 50 2.500000e+00 0.583 slower 1 1.459771e+06 1.459774e+06 3.163
2 irregular 6 4 504 50 1.500000e+00 0.529 slower 1 1.459775e+06 1.459777e+06 2.338
2 irregular 6 5 505 68 1.500000e+00 0.143 faster 1 1.459778e+06 1.459780e+06 2.001
2 irregular 6 6 506 52 3 0.355 slower 1 1.459781e+06 1.459785e+06 3.539
2 irregular 6 7 507 54 2 0.464 faster 0 1.459786e+06 1.459788e+06 2.524
2 irregular 6 8 508 68 2.500000e+00 0.147 faster 1 1.459790e+06 1.459793e+06 2.953
2 irregular 6 9 509 68 1 0.580 faster 1 1.459794e+06 1.459796e+06 1.513
2 irregular 6 10 510 54 3 0.475 faster 0 1.459798e+06 1.459801e+06 3.608
2 irregular 6 11 511 67 2 0.504 faster 1 1.459804e+06 1.459806e+06 2.475
2 irregular 6 12 512 67 1 0.275 faster 1 1.459807e+06 1.459809e+06 1.658
2 irregular 6 13 513 66 1.500000e+00 0.323 slower 0 1.459810e+06 1.459813e+06 2.236
2 irregular 6 14 514 67 2.500000e+00 0.271 slower 0 1.459814e+06 1.459817e+06 3.004
2 irregular 6 15 515 68 1.500000e+00 0.426 faster 1 1.459820e+06 1.459822e+06 1.997
2 irregular 6 16 516 52 3 0.522 faster 0 1.459823e+06 1.459827e+06 3.976
2 irregular 6 17 517 51 1 0.377 faster 0 1.459829e+06 1.459831e+06 2.195
2 irregular 6 18 518 70 1 0.274 faster 1 1.459834e+06 1.459835e+06 1.522
2 irregular 6 19 519 51 1.500000e+00 0.251 slower 1 1.459837e+06 1.459839e+06 2.079
2 irregular 6 20 520 69 1.500000e+00 0.400 faster 1 1.459840e+06 1.459842e+06 1.930
2 irregular 6 21 521 68 2 0.339 faster 1 1.459843e+06 1.459846e+06 2.435
2 irregular 6 22 522 68 2.500000e+00 0.511 faster 1 1.459848e+06 1.459851e+06 2.991
2 irregular 6 23 523 67 2 0.581 faster 1 1.459853e+06 1.459856e+06 2.525
2 irregular 6 24 524 67 1 0.524 faster 1 1.459857e+06 1.459859e+06 1.464
2 irregular 6 25 525 66 1.500000e+00 0.168 faster 1 1.459860e+06 1.459862e+06 1.897
2 irregular 6 26 526 54 1 0.146 faster 0 1.459862e+06 1.459864e+06 1.649
2 irregular 6 27 527 53 1.500000e+00 0.434 faster 0 1.459866e+06 1.459868e+06 2.121
2 irregular 6 28 528 52 3 0.267 faster 0 1.459869e+06 1.459873e+06 3.477
2 irregular 6 29 529 51 2 0.217 faster 0 1.459874e+06 1.459876e+06 2.461
2 irregular 6 30 530 70 3 0.198 faster 1 1.459878e+06 1.459882e+06 3.530
2 irregular 6 31 531 69 2 0.575 faster 1 1.459884e+06 1.459886e+06 2.574
2 irregular 6 32 532 69 2.500000e+00 0.207 faster 1 1.459887e+06 1.459890e+06 2.966
2 irregular 6 33 533 52 1.500000e+00 0.106 slower 1 1.459894e+06 1.459896e+06 2.044
2 irregular 6 34 534 68 2.500000e+00 0.146 faster 1 1.459898e+06 1.459900e+06 2.952
2 irregular 6 35 535 67 2 0.584 faster 1 1.459903e+06 1.459905e+06 2.577
2 irregular 6 36 536 67 1 0.316 faster 1 1.459906e+06 1.459908e+06 1.687
2 irregular 6 37 537 54 1 0.391 faster 0 1.459909e+06 1.459910e+06 1.570
2 irregular 6 38 538 53 1 0.119 faster 0 1.459911e+06 1.459913e+06 1.477
2 irregular 6 39 539 68 2.500000e+00 0.596 slower 0 1.459914e+06 1.459917e+06 3.247
2 irregular 6 40 540 51 2.500000e+00 0.441 slower 1 1.459919e+06 1.459922e+06 3.042
2 irregular 6 41 541 69 2 0.161 slower 0 1.459923e+06 1.459926e+06 2.537
2 irregular 6 42 542 50 2 0.515 slower 1 1.459928e+06 1.459930e+06 2.426
2 irregular 6 43 543 69 3 0.300 slower 0 1.459932e+06 1.459935e+06 3.689
2 irregular 6 44 544 50 2 0.595 slower 1 1.459937e+06 1.459940e+06 2.762
2 irregular 6 45 545 50 1.500000e+00 0.566 slower 1 1.459942e+06 1.459944e+06 2.214
2 irregular 6 46 546 51 1 0.344 slower 1 1.459945e+06 1.459947e+06 1.826
2 irregular 6 47 547 69 1.500000e+00 0.585 faster 1 1.459949e+06 1.459952e+06 2.151
2 irregular 6 48 548 52 3 0.267 faster 0 1.459954e+06 1.459958e+06 3.758
2 irregular 6 49 549 51 2 0.241 slower 1 1.459960e+06 1.459963e+06 2.866
2 irregular 6 50 550 69 1.500000e+00 0.505 faster 1 1.459965e+06 1.459967e+06 2.100
2 irregular 6 51 551 52 2.500000e+00 0.219 faster 0 1.459968e+06 1.459971e+06 3.107
2 irregular 6 52 552 69 2.500000e+00 0.297 faster 1 1.459972e+06 1.459975e+06 2.935
2 irregular 6 53 553 69 1 0.139 faster 1 1.459976e+06 1.459977e+06 1.655
2 irregular 6 54 554 52 3 0.186 faster 0 1.459978e+06 1.459982e+06 3.986
2 irregular 6 55 555 51 1.500000e+00 0.118 slower 1 1.459983e+06 1.459985e+06 2.089
2 irregular 6 56 556 69 2 0.326 faster 1 1.459986e+06 1.459989e+06 2.647
2 irregular 6 57 557 52 1 0.336 faster 0 1.459990e+06 1.459991e+06 1.579
2 irregular 6 58 558 51 2.500000e+00 0.124 faster 0 1.459995e+06 1.459999e+06 3.343
2 irregular 6 59 559 50 3 0.161 slower 1 1.460001e+06 1.460004e+06 3.579
2 irregular 6 60 560 50 2 0.287 slower 1 1.460007e+06 1.460009e+06 2.626
2 irregular 6 61 561 69 1 0.584 faster 1 1.460012e+06 1.460014e+06 1.671
2 irregular 6 62 562 69 3 0.401 faster 1 1.460015e+06 1.460018e+06 3.555
2 irregular 6 63 563 52 1.500000e+00 0.484 faster 0 1.460020e+06 1.460023e+06 2.426
2 irregular 6 64 564 51 2.500000e+00 0.161 faster 0 1.460025e+06 1.460029e+06 3.682
2 irregular 6 65 565 50 2 0.131 slower 1 1.460032e+06 1.460034e+06 2.601
2 irregular 6 66 566 70 2 0.580 faster 1 1.460037e+06 1.460039e+06 2.554
2 irregular 6 67 567 69 1.500000e+00 0.381 faster 1 1.460042e+06 1.460044e+06 2.126
2 irregular 6 68 568 51 2.500000e+00 0.311 faster 0 1.460046e+06 1.460050e+06 3.505
2 irregular 6 69 569 50 2 0.146 slower 1 1.460052e+06 1.460055e+06 2.653
2 irregular 6 70 570 51 3 0.525 slower 1 1.460057e+06 1.460061e+06 3.556
2 irregular 6 71 571 51 2.500000e+00 0.239 faster 0 1.460062e+06 1.460065e+06 3.172
2 irregular 6 72 572 50 2.500000e+00 0.576 slower 1 1.460068e+06 1.460071e+06 3.357
2 irregular 6 73 573 69 3 0.117 faster 1 1.460074e+06 1.460078e+06 3.557
2 irregular 6 74 574 69 3 0.533 faster 1 1.460081e+06 1.460085e+06 3.654
2 irregular 6 75 575 52 3 0.517 slower 1 1.460087e+06 1.460091e+06 3.871
2 irregular 6 76 576 68 3 0.263 faster 1 1.460092e+06 1.460096e+06 3.854
2 irregular 6 77 577 67 3 0.209 faster 1 1.460097e+06 1.460100e+06 3.760
2 irregular 6 78 578 53 1.500000e+00 0.526 faster 0 1.460104e+06 1.460106e+06 2.365
2 irregular 6 79 579 52 2 0.318 faster 0 1.460109e+06 1.460111e+06 2.448
2 irregular 6 80 580 51 3 0.217 faster 0 1.460112e+06 1.460116e+06 3.687
2 irregular 6 81 581 50 2.500000e+00 0.389 faster 0 1.460118e+06 1.460121e+06 2.971
2 irregular 6 82 582 71 3 0.292 faster 1 1.460122e+06 1.460126e+06 3.596
2 irregular 6 83 583 50 1 0.600 faster 0 1.460130e+06 1.460132e+06 2.052
2 irregular 6 84 584 71 1.500000e+00 0.227 faster 1 1.460136e+06 1.460138e+06 2.046
2 irregular 6 85 585 49 2 0.439 slower 1 1.460142e+06 1.460145e+06 2.527
2 irregular 6 86 586 70 2.500000e+00 0.358 faster 1 1.460146e+06 1.460149e+06 3.176
2 irregular 6 87 587 70 1 0.573 faster 1 1.460151e+06 1.460153e+06 1.782
2 irregular 6 88 588 69 2 0.202 faster 1 1.460155e+06 1.460158e+06 2.802
2 irregular 6 89 589 69 3 0.450 faster 1 1.460162e+06 1.460165e+06 3.602
2 irregular 6 90 590 68 1 0.326 faster 1 1.460167e+06 1.460169e+06 1.565
2 irregular 6 91 591 68 2 0.368 faster 1 1.460170e+06 1.460172e+06 2.434
2 irregular 6 92 592 67 2.500000e+00 0.258 faster 1 1.460173e+06 1.460176e+06 3.039
2 irregular 6 93 593 67 1 0.204 faster 1 1.460177e+06 1.460179e+06 1.579
2 irregular 6 94 594 66 1.500000e+00 0.209 faster 1 1.460181e+06 1.460182e+06 1.944
2 irregular 6 95 595 54 2.500000e+00 0.471 slower 1 1.460184e+06 1.460187e+06 3.200
2 irregular 6 96 596 55 1 0.150 faster 0 1.460190e+06 1.460192e+06 1.707
2 irregular 6 97 597 66 3 0.262 faster 1 1.460193e+06 1.460197e+06 3.503
2 irregular 6 98 598 66 2.500000e+00 0.321 faster 1 1.460199e+06 1.460202e+06 3.072
2 irregular 6 99 599 55 1 0.271 faster 0 1.460204e+06 1.460206e+06 1.556
2 irregular 6 100 600 54 1.500000e+00 0.442 faster 0 1.460208e+06 1.460210e+06 2.033
2 regular 7 1 601 67 2 0.413 faster 1 1.460229e+06 1.460232e+06 2.706
2 regular 7 2 602 53 2 0.474 faster 0 1.460234e+06 1.460236e+06 2.485
2 regular 7 3 603 68 2 0.553 faster 1 1.460237e+06 1.460240e+06 2.513
2 regular 7 4 604 53 2 0.586 faster 0 1.460241e+06 1.460243e+06 2.469
2 regular 7 5 605 68 2 0.373 faster 1 1.460244e+06 1.460247e+06 2.448
2 regular 7 6 606 52 2 0.384 faster 0 1.460248e+06 1.460250e+06 2.524
2 regular 7 7 607 69 2 0.139 faster 1 1.460251e+06 1.460254e+06 2.501
2 regular 7 8 608 52 2 0.373 faster 0 1.460255e+06 1.460257e+06 2.427
2 regular 7 9 609 51 2 0.568 slower 1 1.460259e+06 1.460261e+06 2.613
2 regular 7 10 610 69 2 0.338 faster 1 1.460265e+06 1.460268e+06 2.573
2 regular 7 11 611 68 2 0.245 faster 1 1.460270e+06 1.460272e+06 2.842
2 regular 7 12 612 52 2 0.143 faster 0 1.460274e+06 1.460276e+06 2.557
2 regular 7 13 613 69 2 0.477 faster 1 1.460279e+06 1.460281e+06 2.511
2 regular 7 14 614 52 2 0.268 faster 0 1.460284e+06 1.460286e+06 2.509
2 regular 7 15 615 51 2 0.436 slower 1 1.460290e+06 1.460293e+06 2.534
2 regular 7 16 616 51 2 0.272 faster 0 1.460297e+06 1.460299e+06 2.487
2 regular 7 17 617 50 2 0.172 faster 0 1.460300e+06 1.460302e+06 2.575
2 regular 7 18 618 71 2 0.251 faster 1 1.460305e+06 1.460307e+06 2.604
2 regular 7 19 619 70 2 0.108 faster 1 1.460309e+06 1.460311e+06 2.583
2 regular 7 20 620 50 2 0.335 slower 1 1.460313e+06 1.460315e+06 2.677
2 regular 7 21 621 51 2 0.296 faster 0 1.460316e+06 1.460319e+06 2.372
2 regular 7 22 622 50 2 0.402 faster 0 1.460321e+06 1.460323e+06 2.429
2 regular 7 23 623 71 2 0.363 faster 1 1.460326e+06 1.460328e+06 2.423
2 regular 7 24 624 71 2 0.302 faster 1 1.460333e+06 1.460336e+06 2.676
2 regular 7 25 625 70 2 0.119 faster 1 1.460337e+06 1.460339e+06 2.466
2 regular 7 26 626 70 2 0.156 faster 1 1.460340e+06 1.460342e+06 2.381
2 regular 7 27 627 69 2 0.292 faster 1 1.460343e+06 1.460346e+06 2.342
2 regular 7 28 628 51 2 0.274 faster 0 1.460347e+06 1.460349e+06 2.352
2 regular 7 29 629 50 2 0.496 faster 0 1.460352e+06 1.460354e+06 2.649
2 regular 7 30 630 49 2 0.321 slower 1 1.460356e+06 1.460359e+06 2.482
2 regular 7 31 631 70 2 0.246 faster 1 1.460361e+06 1.460363e+06 2.558
2 regular 7 32 632 70 2 0.512 faster 1 1.460365e+06 1.460368e+06 2.395
2 regular 7 33 633 69 2 0.448 faster 1 1.460371e+06 1.460374e+06 2.691
2 regular 7 34 634 69 2 0.126 faster 1 1.460377e+06 1.460380e+06 3.031
2 regular 7 35 635 52 2 0.533 slower 1 1.460383e+06 1.460386e+06 2.846
2 regular 7 36 636 68 2 0.466 faster 1 1.460387e+06 1.460390e+06 2.542
2 regular 7 37 637 67 2 0.480 faster 1 1.460392e+06 1.460394e+06 2.498
2 regular 7 38 638 67 2 0.369 faster 1 1.460396e+06 1.460398e+06 2.512
2 regular 7 39 639 54 2 0.426 faster 0 1.460400e+06 1.460403e+06 2.628
2 regular 7 40 640 67 2 0.496 faster 1 1.460405e+06 1.460407e+06 2.553
2 regular 7 41 641 67 2 0.562 faster 1 1.460409e+06 1.460411e+06 2.569
2 regular 7 42 642 66 2 0.553 faster 1 1.460413e+06 1.460416e+06 2.569
2 regular 7 43 643 54 2 0.514 slower 1 1.460418e+06 1.460421e+06 2.732
2 regular 7 44 644 65 2 0.589 slower 0 1.460422e+06 1.460425e+06 2.652
2 regular 7 45 645 54 2 0.447 slower 1 1.460427e+06 1.460429e+06 2.661
2 regular 7 46 646 54 2 0.582 faster 0 1.460431e+06 1.460434e+06 3.114
2 regular 7 47 647 53 2 0.459 faster 0 1.460435e+06 1.460438e+06 2.784
2 regular 7 48 648 52 2 0.501 faster 0 1.460439e+06 1.460442e+06 2.597
2 regular 7 49 649 51 2 0.416 faster 0 1.460444e+06 1.460446e+06 2.532
2 regular 7 50 650 50 2 0.273 slower 1 1.460449e+06 1.460451e+06 2.529
2 regular 7 51 651 51 2 0.346 faster 0 1.460454e+06 1.460457e+06 2.956
2 regular 7 52 652 50 2 0.180 faster 0 1.460458e+06 1.460461e+06 2.771
2 regular 7 53 653 49 2 0.329 faster 0 1.460462e+06 1.460465e+06 2.515
2 regular 7 54 654 72 2 0.187 faster 1 1.460465e+06 1.460468e+06 2.511
2 regular 7 55 655 48 2 0.287 faster 0 1.460474e+06 1.460476e+06 2.645
2 regular 7 56 656 73 2 0.293 faster 1 1.460479e+06 1.460482e+06 2.430
2 regular 7 57 657 72 2 0.406 faster 1 1.460484e+06 1.460486e+06 2.525
2 regular 7 58 658 48 2 0.102 faster 0 1.460488e+06 1.460490e+06 2.624
2 regular 7 59 659 73 2 0.382 faster 1 1.460492e+06 1.460495e+06 2.448
2 regular 7 60 660 48 2 0.276 slower 1 1.460496e+06 1.460499e+06 2.550
2 regular 7 61 661 72 2 0.446 faster 1 1.460501e+06 1.460504e+06 2.967
2 regular 7 62 662 71 2 0.235 faster 1 1.460504e+06 1.460507e+06 2.997
2 regular 7 63 663 49 2 0.238 slower 1 1.460509e+06 1.460511e+06 2.647
2 regular 7 64 664 50 2 0.383 faster 0 1.460513e+06 1.460516e+06 2.542
2 regular 7 65 665 71 2 0.521 faster 1 1.460518e+06 1.460520e+06 2.550
2 regular 7 66 666 49 2 0.487 faster 0 1.460522e+06 1.460524e+06 2.371
2 regular 7 67 667 48 2 0.364 slower 1 1.460526e+06 1.460529e+06 3.141
2 regular 7 68 668 71 2 0.498 faster 1 1.460530e+06 1.460533e+06 2.709
2 regular 7 69 669 71 2 0.521 faster 1 1.460535e+06 1.460538e+06 2.460
2 regular 7 70 670 70 2 0.598 faster 1 1.460540e+06 1.460543e+06 2.590
2 regular 7 71 671 70 2 0.368 faster 1 1.460545e+06 1.460548e+06 2.776
2 regular 7 72 672 69 2 0.418 faster 1 1.460551e+06 1.460554e+06 2.523
2 regular 7 73 673 51 2 0.541 slower 1 1.460556e+06 1.460559e+06 2.838
2 regular 7 74 674 68 2 0.118 faster 1 1.460560e+06 1.460563e+06 2.664
2 regular 7 75 675 68 2 0.438 faster 1 1.460565e+06 1.460568e+06 2.753
2 regular 7 76 676 53 2 0.129 faster 0 1.460571e+06 1.460574e+06 2.713
2 regular 7 77 677 68 2 0.143 faster 1 1.460574e+06 1.460577e+06 2.563
2 regular 7 78 678 68 2 0.177 faster 1 1.460579e+06 1.460582e+06 2.823
2 regular 7 79 679 53 2 0.495 slower 1 1.460583e+06 1.460586e+06 2.686
2 regular 7 80 680 53 2 0.575 slower 1 1.460593e+06 1.460596e+06 2.538
2 regular 7 81 681 54 2 0.349 slower 1 1.460597e+06 1.460600e+06 2.613
2 regular 7 82 682 54 2 0.230 slower 1 1.460601e+06 1.460604e+06 2.502
2 regular 7 83 683 55 2 0.596 slower 1 1.460605e+06 1.460608e+06 2.636
2 regular 7 84 684 55 2 0.102 faster 0 1.460610e+06 1.460613e+06 2.559
2 regular 7 85 685 54 2 0.340 faster 0 1.460614e+06 1.460616e+06 2.480
2 regular 7 86 686 67 2 0.436 faster 1 1.460618e+06 1.460620e+06 2.514
2 regular 7 87 687 54 2 0.296 faster 0 1.460621e+06 1.460624e+06 2.609
2 regular 7 88 688 53 2 0.210 faster 0 1.460627e+06 1.460629e+06 2.686
2 regular 7 89 689 52 2 0.418 slower 1 1.460633e+06 1.460635e+06 2.542
2 regular 7 90 690 52 2 0.430 slower 1 1.460638e+06 1.460641e+06 2.864
2 regular 7 91 691 53 2 0.408 faster 0 1.460645e+06 1.460648e+06 2.662
2 regular 7 92 692 68 2 0.132 faster 1 1.460650e+06 1.460653e+06 3.034
2 regular 7 93 693 68 2 0.496 faster 1 1.460654e+06 1.460657e+06 2.969
2 regular 7 94 694 67 2 0.389 faster 1 1.460659e+06 1.460662e+06 2.706
2 regular 7 95 695 67 2 0.168 faster 1 1.460664e+06 1.460667e+06 2.422
2 regular 7 96 696 66 2 0.597 faster 1 1.460669e+06 1.460671e+06 2.319
2 regular 7 97 697 66 2 0.190 faster 1 1.460673e+06 1.460676e+06 3.182
2 regular 7 98 698 65 2 0.524 faster 1 1.460678e+06 1.460680e+06 2.473
2 regular 7 99 699 55 2 0.485 faster 0 1.460682e+06 1.460685e+06 2.458
2 regular 7 100 700 66 2 0.248 faster 1 1.460685e+06 1.460688e+06 2.474
2 irregular 8 1 701 65 1 0.220 faster 1 1.460708e+06 1.460710e+06 1.621
2 irregular 8 2 702 55 1 0.113 faster 0 1.460711e+06 1.460713e+06 1.544
2 irregular 8 3 703 54 2 0.123 slower 1 1.460714e+06 1.460716e+06 2.449
2 irregular 8 4 704 65 2.500000e+00 0.501 faster 1 1.460720e+06 1.460723e+06 3.033
2 irregular 8 5 705 55 2 0.217 faster 0 1.460726e+06 1.460728e+06 2.481
2 irregular 8 6 706 66 2.500000e+00 0.238 faster 1 1.460730e+06 1.460733e+06 3.001
2 irregular 8 7 707 55 1.500000e+00 0.378 faster 0 1.460734e+06 1.460736e+06 1.890
2 irregular 8 8 708 66 2 0.130 faster 1 1.460737e+06 1.460739e+06 2.366
2 irregular 8 9 709 66 2 0.196 faster 1 1.460740e+06 1.460743e+06 2.607
2 irregular 8 10 710 65 1 0.519 faster 1 1.460745e+06 1.460746e+06 1.395
2 irregular 8 11 711 55 3 0.346 faster 0 1.460748e+06 1.460751e+06 3.591
2 irregular 8 12 712 54 1.500000e+00 0.579 faster 0 1.460754e+06 1.460756e+06 2.235
2 irregular 8 13 713 67 3 0.111 faster 1 1.460759e+06 1.460762e+06 3.496
2 irregular 8 14 714 66 2.500000e+00 0.584 faster 1 1.460764e+06 1.460768e+06 3.107
2 irregular 8 15 715 66 3 0.379 slower 0 1.460769e+06 1.460774e+06 5.397
2 irregular 8 16 716 53 3 0.123 slower 1 1.460776e+06 1.460780e+06 4.014
2 irregular 8 17 717 66 1 0.397 faster 1 1.460781e+06 1.460783e+06 2.034
2 irregular 8 18 718 66 3 0.527 faster 1 1.460784e+06 1.460788e+06 3.543
2 irregular 8 19 719 65 3 0.179 faster 1 1.460789e+06 1.460793e+06 4.376
2 irregular 8 20 720 65 1.500000e+00 0.335 faster 1 1.460795e+06 1.460797e+06 2.032
2 irregular 8 21 721 56 2 0.274 faster 0 1.460799e+06 1.460801e+06 2.450
2 irregular 8 22 722 55 1.500000e+00 0.231 slower 1 1.460803e+06 1.460805e+06 2.294
2 irregular 8 23 723 65 1 0.420 faster 1 1.460807e+06 1.460809e+06 1.587
2 irregular 8 24 724 56 1 0.341 faster 0 1.460810e+06 1.460812e+06 1.760
2 irregular 8 25 725 65 1.500000e+00 0.507 slower 0 1.460814e+06 1.460816e+06 2.050
2 irregular 8 26 726 54 2.500000e+00 0.148 faster 0 1.460817e+06 1.460820e+06 3.463
2 irregular 8 27 727 67 2 0.258 slower 0 1.460822e+06 1.460825e+06 2.829
2 irregular 8 28 728 52 2 0.107 slower 1 1.460827e+06 1.460830e+06 2.945
2 irregular 8 29 729 68 3 0.276 slower 0 1.460834e+06 1.460837e+06 3.620
2 irregular 8 30 730 51 1 0.136 slower 1 1.460838e+06 1.460840e+06 1.577
2 irregular 8 31 731 52 2.500000e+00 0.450 slower 1 1.460841e+06 1.460844e+06 3.019
2 irregular 8 32 732 52 2 0.290 faster 0 1.460846e+06 1.460849e+06 3.074
2 irregular 8 33 733 51 3 0.111 slower 1 1.460851e+06 1.460855e+06 3.627
2 irregular 8 34 734 52 3 0.532 slower 1 1.460857e+06 1.460861e+06 4.014
2 irregular 8 35 735 52 2.500000e+00 0.303 faster 0 1.460878e+06 1.460882e+06 3.508
2 irregular 8 36 736 51 3 0.393 faster 0 1.460883e+06 1.460887e+06 3.907
2 irregular 8 37 737 50 1 0.117 faster 0 1.460888e+06 1.460890e+06 1.793
2 irregular 8 38 738 49 1.500000e+00 0.167 faster 0 1.460891e+06 1.460894e+06 2.639
2 irregular 8 39 739 72 1 0.435 faster 1 1.460895e+06 1.460897e+06 1.677
2 irregular 8 40 740 71 1 0.429 faster 1 1.460898e+06 1.460900e+06 1.513
2 irregular 8 41 741 49 1.500000e+00 0.261 slower 1 1.460901e+06 1.460903e+06 1.953
2 irregular 8 42 742 50 1.500000e+00 0.278 slower 1 1.460905e+06 1.460907e+06 2.098
2 irregular 8 43 743 70 2 0.185 faster 1 1.460909e+06 1.460911e+06 2.548
2 irregular 8 44 744 69 3 0.270 faster 1 1.460913e+06 1.460916e+06 3.568
2 irregular 8 45 745 69 3 0.309 faster 1 1.460919e+06 1.460922e+06 3.622
2 irregular 8 46 746 68 2 0.470 faster 1 1.460923e+06 1.460926e+06 2.761
2 irregular 8 47 747 68 1 0.129 faster 1 1.460927e+06 1.460929e+06 1.667
2 irregular 8 48 748 53 2.500000e+00 0.111 slower 1 1.460930e+06 1.460934e+06 3.155
2 irregular 8 49 749 53 1 0.379 faster 0 1.460935e+06 1.460937e+06 1.821
2 irregular 8 50 750 68 1 0.547 faster 1 1.460939e+06 1.460941e+06 2.006
2 irregular 8 51 751 53 3 0.451 slower 1 1.460945e+06 1.460949e+06 3.652
2 irregular 8 52 752 67 1.500000e+00 0.175 faster 1 1.460951e+06 1.460953e+06 2.077
2 irregular 8 53 753 54 2.500000e+00 0.497 faster 0 1.460956e+06 1.460960e+06 3.121
2 irregular 8 54 754 67 1.500000e+00 0.141 faster 1 1.460961e+06 1.460963e+06 2.059
2 irregular 8 55 755 53 2.500000e+00 0.429 faster 0 1.460965e+06 1.460969e+06 3.541
2 irregular 8 56 756 52 1 0.147 slower 1 1.460971e+06 1.460973e+06 1.661
2 irregular 8 57 757 67 3 0.364 faster 1 1.460975e+06 1.460978e+06 3.631
2 irregular 8 58 758 67 2 0.241 faster 1 1.460979e+06 1.460982e+06 2.586
2 irregular 8 59 759 54 2 0.190 slower 1 1.460983e+06 1.460986e+06 3.257
2 irregular 8 60 760 66 1.500000e+00 0.575 faster 1 1.460987e+06 1.460989e+06 1.927
2 irregular 8 61 761 55 3 0.113 faster 0 1.460990e+06 1.460995e+06 4.074
2 irregular 8 62 762 54 2 0.204 faster 0 1.460996e+06 1.460999e+06 2.508
2 irregular 8 63 763 67 1.500000e+00 0.286 faster 1 1.461000e+06 1.461003e+06 2.079
2 irregular 8 64 764 67 2.500000e+00 0.210 faster 1 1.461003e+06 1.461006e+06 2.948
2 irregular 8 65 765 54 3 0.495 faster 0 1.461008e+06 1.461012e+06 3.559
2 irregular 8 66 766 53 1.500000e+00 0.228 faster 0 1.461014e+06 1.461016e+06 2.001
2 irregular 8 67 767 52 1.500000e+00 0.512 faster 0 1.461018e+06 1.461020e+06 1.956
2 irregular 8 68 768 69 1.500000e+00 0.260 faster 1 1.461021e+06 1.461023e+06 1.927
2 irregular 8 69 769 51 1.500000e+00 0.393 faster 0 1.461024e+06 1.461026e+06 1.987
2 irregular 8 70 770 70 2 0.547 faster 1 1.461028e+06 1.461031e+06 2.484
2 irregular 8 71 771 51 2 0.504 faster 0 1.461032e+06 1.461034e+06 2.706
2 irregular 8 72 772 70 2.500000e+00 0.389 faster 1 1.461036e+06 1.461039e+06 2.995
2 irregular 8 73 773 70 2.500000e+00 0.500 faster 1 1.461041e+06 1.461044e+06 2.995
2 irregular 8 74 774 69 1.500000e+00 0.463 faster 1 1.461046e+06 1.461048e+06 1.951
2 irregular 8 75 775 69 2 0.581 faster 1 1.461049e+06 1.461052e+06 2.528
2 irregular 8 76 776 52 2.500000e+00 0.593 faster 0 1.461053e+06 1.461056e+06 2.849
2 irregular 8 77 777 69 3 0.318 faster 1 1.461058e+06 1.461061e+06 3.448
2 irregular 8 78 778 69 1 0.233 faster 1 1.461062e+06 1.461064e+06 1.674
2 irregular 8 79 779 68 2.500000e+00 0.324 faster 1 1.461066e+06 1.461069e+06 2.893
2 irregular 8 80 780 52 1.500000e+00 0.545 faster 0 1.461071e+06 1.461072e+06 1.876
2 irregular 8 81 781 51 1 0.228 faster 0 1.461074e+06 1.461075e+06 1.432
2 irregular 8 82 782 70 2 0.211 faster 1 1.461076e+06 1.461079e+06 2.526
2 irregular 8 83 783 51 2 0.279 slower 1 1.461081e+06 1.461084e+06 2.582
2 irregular 8 84 784 51 3 0.142 faster 0 1.461086e+06 1.461090e+06 3.659
2 irregular 8 85 785 50 2.500000e+00 0.528 faster 0 1.461091e+06 1.461094e+06 3.031
2 irregular 8 86 786 71 3 0.413 faster 1 1.461096e+06 1.461099e+06 3.604
2 irregular 8 87 787 70 2.500000e+00 0.517 faster 1 1.461102e+06 1.461105e+06 3.217
2 irregular 8 88 788 50 2.500000e+00 0.404 slower 1 1.461106e+06 1.461109e+06 3.147
2 irregular 8 89 789 51 3 0.325 faster 0 1.461111e+06 1.461115e+06 3.557
2 irregular 8 90 790 70 2.500000e+00 0.346 faster 1 1.461116e+06 1.461119e+06 3.353
2 irregular 8 91 791 50 1 0.397 slower 1 1.461121e+06 1.461123e+06 1.639
2 irregular 8 92 792 51 1 0.344 slower 1 1.461124e+06 1.461126e+06 1.656
2 irregular 8 93 793 51 2.500000e+00 0.138 faster 0 1.461127e+06 1.461131e+06 3.438
2 irregular 8 94 794 70 2 0.449 faster 1 1.461133e+06 1.461135e+06 2.639
2 irregular 8 95 795 51 1 0.111 faster 0 1.461137e+06 1.461139e+06 1.899
2 irregular 8 96 796 50 2 0.288 faster 0 1.461141e+06 1.461144e+06 3.306
2 irregular 8 97 797 71 1.500000e+00 0.325 faster 1 1.461146e+06 1.461148e+06 2.574
2 irregular 8 98 798 71 1 0.584 faster 1 1.461150e+06 1.461152e+06 1.463
2 irregular 8 99 799 70 2.500000e+00 0.354 faster 1 1.461154e+06 1.461157e+06 3.032
2 irregular 8 100 800 70 1.500000e+00 0.192 faster 1 1.461158e+06 1.461160e+06 2.061
2 regular 9 1 801 69 1.500000e+00 0.481 faster 1 1.461186e+06 1.461188e+06 1.927
2 regular 9 2 802 69 1.500000e+00 0.425 faster 1 1.461190e+06 1.461192e+06 1.967
2 regular 9 3 803 68 1.500000e+00 0.204 faster 1 1.461193e+06 1.461195e+06 1.785
2 regular 9 4 804 68 1.500000e+00 0.123 faster 1 1.461196e+06 1.461198e+06 1.815
2 regular 9 5 805 53 1.500000e+00 0.218 faster 0 1.461198e+06 1.461200e+06 1.821
2 regular 9 6 806 52 1.500000e+00 0.545 faster 0 1.461202e+06 1.461204e+06 1.845
2 regular 9 7 807 69 1.500000e+00 0.389 faster 1 1.461205e+06 1.461207e+06 1.826
2 regular 9 8 808 51 1.500000e+00 0.312 faster 0 1.461207e+06 1.461209e+06 1.918
2 regular 9 9 809 70 1.500000e+00 0.493 faster 1 1.461211e+06 1.461213e+06 1.971
2 regular 9 10 810 51 1.500000e+00 0.266 faster 0 1.461214e+06 1.461217e+06 2.166
2 regular 9 11 811 70 1.500000e+00 0.136 faster 1 1.461218e+06 1.461220e+06 1.972
2 regular 9 12 812 70 1.500000e+00 0.582 faster 1 1.461222e+06 1.461224e+06 1.970
2 regular 9 13 813 51 1.500000e+00 0.236 faster 0 1.461225e+06 1.461227e+06 1.985
2 regular 9 14 814 70 1.500000e+00 0.364 faster 1 1.461228e+06 1.461230e+06 1.796
2 regular 9 15 815 70 1.500000e+00 0.142 faster 1 1.461231e+06 1.461233e+06 1.823
2 regular 9 16 816 51 1.500000e+00 0.288 faster 0 1.461234e+06 1.461236e+06 1.821
2 regular 9 17 817 70 1.500000e+00 0.239 faster 1 1.461237e+06 1.461239e+06 1.840
2 regular 9 18 818 50 1.500000e+00 0.244 faster 0 1.461240e+06 1.461242e+06 2.191
2 regular 9 19 819 49 1.500000e+00 0.251 slower 1 1.461243e+06 1.461246e+06 2.343
2 regular 9 20 820 50 1.500000e+00 0.105 slower 1 1.461248e+06 1.461250e+06 2.037
2 regular 9 21 821 70 1.500000e+00 0.396 faster 1 1.461251e+06 1.461253e+06 2.059
2 regular 9 22 822 69 1.500000e+00 0.486 faster 1 1.461255e+06 1.461257e+06 2.093
2 regular 9 23 823 69 1.500000e+00 0.290 faster 1 1.461258e+06 1.461260e+06 1.944
2 regular 9 24 824 52 1.500000e+00 0.201 faster 0 1.461262e+06 1.461264e+06 2.063
2 regular 9 25 825 51 1.500000e+00 0.327 slower 1 1.461266e+06 1.461268e+06 2.242
2 regular 9 26 826 51 1.500000e+00 0.314 faster 0 1.461270e+06 1.461273e+06 2.491
2 regular 9 27 827 50 1.500000e+00 0.367 faster 0 1.461274e+06 1.461275e+06 1.892
2 regular 9 28 828 71 1.500000e+00 0.314 faster 1 1.461277e+06 1.461279e+06 1.841
2 regular 9 29 829 50 1.500000e+00 0.113 faster 0 1.461279e+06 1.461281e+06 1.931
2 regular 9 30 830 71 1.500000e+00 0.155 faster 1 1.461282e+06 1.461284e+06 2.208
2 regular 9 31 831 71 1.500000e+00 0.226 faster 1 1.461286e+06 1.461288e+06 1.922
2 regular 9 32 832 50 1.500000e+00 0.113 slower 1 1.461289e+06 1.461291e+06 2.294
2 regular 9 33 833 70 1.500000e+00 0.150 faster 1 1.461292e+06 1.461294e+06 1.967
2 regular 9 34 834 69 1.500000e+00 0.257 faster 1 1.461295e+06 1.461297e+06 2.031
2 regular 9 35 835 69 1.500000e+00 0.580 faster 1 1.461300e+06 1.461302e+06 1.995
2 regular 9 36 836 68 1.500000e+00 0.368 faster 1 1.461303e+06 1.461304e+06 1.881
2 regular 9 37 837 52 1.500000e+00 0.401 faster 0 1.461306e+06 1.461307e+06 1.845
2 regular 9 38 838 69 1.500000e+00 0.425 faster 1 1.461309e+06 1.461310e+06 1.895
2 regular 9 39 839 52 1.500000e+00 0.340 faster 0 1.461311e+06 1.461313e+06 1.921
2 regular 9 40 840 69 1.500000e+00 0.532 faster 1 1.461318e+06 1.461320e+06 1.940
2 regular 9 41 841 69 1.500000e+00 0.420 faster 1 1.461322e+06 1.461324e+06 1.874
2 regular 9 42 842 68 1.500000e+00 0.599 faster 1 1.461326e+06 1.461328e+06 1.975
2 regular 9 43 843 52 1.500000e+00 0.499 faster 0 1.461329e+06 1.461331e+06 1.900
2 regular 9 44 844 51 1.500000e+00 0.595 faster 0 1.461333e+06 1.461335e+06 1.946
2 regular 9 45 845 50 1.500000e+00 0.234 slower 1 1.461336e+06 1.461338e+06 2.034
2 regular 9 46 846 51 1.500000e+00 0.166 faster 0 1.461341e+06 1.461343e+06 2.148
2 regular 9 47 847 70 1.500000e+00 0.460 faster 1 1.461344e+06 1.461346e+06 1.933
2 regular 9 48 848 70 1.500000e+00 0.253 faster 1 1.461347e+06 1.461349e+06 2.003
2 regular 9 49 849 69 1.500000e+00 0.387 faster 1 1.461351e+06 1.461353e+06 2.053
2 regular 9 50 850 51 1.500000e+00 0.182 faster 0 1.461354e+06 1.461357e+06 2.578
2 regular 9 51 851 50 1.500000e+00 0.226 slower 1 1.461359e+06 1.461361e+06 2.074
2 regular 9 52 852 51 1.500000e+00 0.266 faster 0 1.461362e+06 1.461364e+06 2.130
2 regular 9 53 853 70 1.500000e+00 0.338 faster 1 1.461365e+06 1.461367e+06 2.130
2 regular 9 54 854 70 1.500000e+00 0.430 faster 1 1.461368e+06 1.461370e+06 1.993
2 regular 9 55 855 51 1.500000e+00 0.308 slower 1 1.461371e+06 1.461374e+06 2.427
2 regular 9 56 856 51 1.500000e+00 0.271 slower 1 1.461375e+06 1.461377e+06 1.947
2 regular 9 57 857 68 1.500000e+00 0.226 faster 1 1.461378e+06 1.461380e+06 2.260
2 regular 9 58 858 52 1.500000e+00 0.102 slower 1 1.461382e+06 1.461384e+06 1.975
2 regular 9 59 859 53 1.500000e+00 0.275 slower 1 1.461386e+06 1.461388e+06 2.126
2 regular 9 60 860 53 1.500000e+00 0.389 faster 0 1.461390e+06 1.461392e+06 2.128
2 regular 9 61 861 68 1.500000e+00 0.434 faster 1 1.461395e+06 1.461397e+06 2.094
2 regular 9 62 862 53 1.500000e+00 0.588 faster 0 1.461398e+06 1.461400e+06 1.943
2 regular 9 63 863 68 1.500000e+00 0.265 slower 0 1.461402e+06 1.461403e+06 1.905
2 regular 9 64 864 69 1.500000e+00 0.571 faster 1 1.461405e+06 1.461407e+06 2.065
2 regular 9 65 865 51 1.500000e+00 0.141 faster 0 1.461409e+06 1.461411e+06 2.117
2 regular 9 66 866 70 1.500000e+00 0.396 faster 1 1.461413e+06 1.461415e+06 1.915
2 regular 9 67 867 69 1.500000e+00 0.214 faster 1 1.461416e+06 1.461418e+06 2.054
2 regular 9 68 868 51 1.500000e+00 0.585 faster 0 1.461420e+06 1.461422e+06 1.993
2 regular 9 69 869 50 1.500000e+00 0.396 faster 0 1.461423e+06 1.461425e+06 2.040
2 regular 9 70 870 71 1.500000e+00 0.358 faster 1 1.461427e+06 1.461429e+06 2.147
2 regular 9 71 871 50 1.500000e+00 0.591 faster 0 1.461431e+06 1.461433e+06 2.039
2 regular 9 72 872 71 1.500000e+00 0.248 faster 1 1.461434e+06 1.461436e+06 1.981
2 regular 9 73 873 49 1.500000e+00 0.216 slower 1 1.461438e+06 1.461440e+06 2.041
2 regular 9 74 874 70 1.500000e+00 0.247 faster 1 1.461441e+06 1.461443e+06 2.005
2 regular 9 75 875 50 1.500000e+00 0.156 faster 0 1.461445e+06 1.461447e+06 1.888
2 regular 9 76 876 49 1.500000e+00 0.366 slower 1 1.461450e+06 1.461453e+06 2.549
2 regular 9 77 877 50 1.500000e+00 0.165 faster 0 1.461454e+06 1.461456e+06 2.206
2 regular 9 78 878 49 1.500000e+00 0.596 slower 1 1.461460e+06 1.461462e+06 2.123
2 regular 9 79 879 71 1.500000e+00 0.428 faster 1 1.461466e+06 1.461468e+06 2.070
2 regular 9 80 880 70 1.500000e+00 0.538 faster 1 1.461472e+06 1.461474e+06 2.179
2 regular 9 81 881 50 1.500000e+00 0.195 faster 0 1.461476e+06 1.461478e+06 2.144
2 regular 9 82 882 49 1.500000e+00 0.401 slower 1 1.461480e+06 1.461482e+06 1.940
2 regular 9 83 883 70 1.500000e+00 0.106 faster 1 1.461483e+06 1.461485e+06 1.913
2 regular 9 84 884 50 1.500000e+00 0.518 faster 0 1.461488e+06 1.461490e+06 2.337
2 regular 9 85 885 49 1.500000e+00 0.498 slower 1 1.461491e+06 1.461493e+06 1.991
2 regular 9 86 886 50 1.500000e+00 0.123 slower 1 1.461494e+06 1.461496e+06 1.924
2 regular 9 87 887 70 1.500000e+00 0.414 faster 1 1.461497e+06 1.461499e+06 1.967
2 regular 9 88 888 69 1.500000e+00 0.400 faster 1 1.461501e+06 1.461503e+06 2.177
2 regular 9 89 889 69 1.500000e+00 0.402 faster 1 1.461504e+06 1.461507e+06 2.104
2 regular 9 90 890 68 1.500000e+00 0.257 faster 1 1.461507e+06 1.461509e+06 1.971
2 regular 9 91 891 52 1.500000e+00 0.133 slower 1 1.461511e+06 1.461513e+06 2.032
2 regular 9 92 892 67 1.500000e+00 0.586 faster 1 1.461515e+06 1.461517e+06 1.947
2 regular 9 93 893 67 1.500000e+00 0.279 slower 0 1.461519e+06 1.461521e+06 2.490
2 regular 9 94 894 68 1.500000e+00 0.504 faster 1 1.461522e+06 1.461525e+06 2.147
2 regular 9 95 895 67 1.500000e+00 0.568 slower 0 1.461526e+06 1.461528e+06 2.039
2 regular 9 96 896 52 1.500000e+00 0.284 slower 1 1.461530e+06 1.461532e+06 2.559
2 regular 9 97 897 52 1.500000e+00 0.208 slower 1 1.461534e+06 1.461536e+06 2.600
2 regular 9 98 898 53 1.500000e+00 0.488 slower 1 1.461538e+06 1.461540e+06 2.181
2 regular 9 99 899 53 1.500000e+00 0.260 faster 0 1.461542e+06 1.461544e+06 2.248
2 regular 9 100 900 52 1.500000e+00 0.598 faster 0 1.461546e+06 1.461548e+06 1.986
2 irregular 10 1 901 69 2.500000e+00 0.448 faster 1 1.461571e+06 1.461574e+06 3.059
2 irregular 10 2 902 68 3 0.267 faster 1 1.461576e+06 1.461579e+06 3.485
2 irregular 10 3 903 68 1.500000e+00 0.536 faster 1 1.461581e+06 1.461583e+06 1.868
2 irregular 10 4 904 67 3 0.308 faster 1 1.461584e+06 1.461587e+06 3.463
2 irregular 10 5 905 53 1 0.489 faster 0 1.461589e+06 1.461590e+06 1.651
2 irregular 10 6 906 52 1.500000e+00 0.462 slower 1 1.461592e+06 1.461594e+06 2.237
2 irregular 10 7 907 53 2.500000e+00 0.365 faster 0 1.461597e+06 1.461600e+06 2.968
2 irregular 10 8 908 52 1 0.242 faster 0 1.461600e+06 1.461602e+06 1.806
2 irregular 10 9 909 51 2 0.164 faster 0 1.461604e+06 1.461607e+06 2.775
2 irregular 10 10 910 50 1.500000e+00 0.560 faster 0 1.461608e+06 1.461610e+06 2.248
2 irregular 10 11 911 49 1 0.309 slower 1 1.461612e+06 1.461613e+06 1.830
2 irregular 10 12 912 49 1 0.505 slower 1 1.461615e+06 1.461617e+06 1.584
2 irregular 10 13 913 70 2 0.558 faster 1 1.461619e+06 1.461621e+06 2.652
2 irregular 10 14 914 70 2 0.263 faster 1 1.461623e+06 1.461625e+06 2.677
2 irregular 10 15 915 69 1 0.156 faster 1 1.461627e+06 1.461628e+06 1.686
2 irregular 10 16 916 51 2.500000e+00 0.463 faster 0 1.461630e+06 1.461634e+06 3.602
2 irregular 10 17 917 70 1 0.143 faster 1 1.461635e+06 1.461637e+06 2.157
2 irregular 10 18 918 69 3 0.391 faster 1 1.461639e+06 1.461642e+06 3.552
2 irregular 10 19 919 51 3 0.473 slower 1 1.461644e+06 1.461648e+06 3.722
2 irregular 10 20 920 68 3 0.468 faster 1 1.461650e+06 1.461654e+06 3.755
2 irregular 10 21 921 68 2 0.554 faster 1 1.461655e+06 1.461658e+06 2.944
2 irregular 10 22 922 53 1 0.165 faster 0 1.461659e+06 1.461661e+06 1.819
2 irregular 10 23 923 68 1 0.231 faster 1 1.461662e+06 1.461663e+06 1.713
2 irregular 10 24 924 52 1.500000e+00 0.317 faster 0 1.461665e+06 1.461667e+06 2.127
2 irregular 10 25 925 69 2 0.523 faster 1 1.461669e+06 1.461671e+06 2.511
2 irregular 10 26 926 68 2 0.261 faster 1 1.461672e+06 1.461675e+06 2.780
2 irregular 10 27 927 52 2 0.493 faster 0 1.461677e+06 1.461680e+06 2.653
2 irregular 10 28 928 51 2.500000e+00 0.571 faster 0 1.461681e+06 1.461685e+06 3.400
2 irregular 10 29 929 70 2 0.505 faster 1 1.461689e+06 1.461691e+06 2.518
2 irregular 10 30 930 69 1.500000e+00 0.528 faster 1 1.461693e+06 1.461695e+06 2.105
2 irregular 10 31 931 51 2.500000e+00 0.478 slower 1 1.461697e+06 1.461700e+06 3.298
2 irregular 10 32 932 68 3 0.337 faster 1 1.461702e+06 1.461706e+06 3.860
2 irregular 10 33 933 68 2.500000e+00 0.457 faster 1 1.461707e+06 1.461711e+06 3.963
2 irregular 10 34 934 53 3 0.477 faster 0 1.461713e+06 1.461716e+06 3.581
2 irregular 10 35 935 52 3 0.405 faster 0 1.461718e+06 1.461722e+06 3.547
2 irregular 10 36 936 51 1.500000e+00 0.164 faster 0 1.461726e+06 1.461728e+06 1.987
2 irregular 10 37 937 50 3 0.280 faster 0 1.461729e+06 1.461733e+06 3.786
2 irregular 10 38 938 49 1 0.252 faster 0 1.461734e+06 1.461736e+06 1.689
2 irregular 10 39 939 72 1 0.541 faster 1 1.461737e+06 1.461738e+06 1.523
2 irregular 10 40 940 72 1 0.237 faster 1 1.461740e+06 1.461742e+06 1.465
2 irregular 10 41 941 49 3 0.198 slower 1 1.461743e+06 1.461747e+06 3.640
2 irregular 10 42 942 49 1.500000e+00 0.385 slower 1 1.461749e+06 1.461752e+06 2.486
2 irregular 10 43 943 70 2.500000e+00 0.558 faster 1 1.461753e+06 1.461757e+06 3.353
2 irregular 10 44 944 50 2.500000e+00 0.473 slower 1 1.461758e+06 1.461761e+06 3.105
2 irregular 10 45 945 69 3 0.316 faster 1 1.461762e+06 1.461766e+06 3.664
2 irregular 10 46 946 51 1 0.245 none 2 1.461767e+06 1.461771e+06 4.000
2 irregular 10 47 947 69 2.500000e+00 0.323 faster 1 1.461772e+06 1.461775e+06 3.086
2 irregular 10 48 948 52 2 0.403 faster 0 1.461776e+06 1.461779e+06 2.483
2 irregular 10 49 949 51 1.500000e+00 0.276 slower 1 1.461780e+06 1.461782e+06 2.167
2 irregular 10 50 950 69 2.500000e+00 0.438 faster 1 1.461784e+06 1.461787e+06 3.157
2 irregular 10 51 951 52 1.500000e+00 0.201 slower 1 1.461788e+06 1.461790e+06 1.928
2 irregular 10 52 952 52 1 0.152 slower 1 1.461791e+06 1.461793e+06 1.484
2 irregular 10 53 953 67 1.500000e+00 0.187 faster 1 1.461794e+06 1.461796e+06 1.998
2 irregular 10 54 954 67 1.500000e+00 0.422 faster 1 1.461798e+06 1.461800e+06 2.254
2 irregular 10 55 955 54 2 0.545 faster 0 1.461802e+06 1.461804e+06 2.734
2 irregular 10 56 956 67 1.500000e+00 0.322 faster 1 1.461806e+06 1.461808e+06 2.416
2 irregular 10 57 957 67 1 0.579 faster 1 1.461810e+06 1.461812e+06 1.735
2 irregular 10 58 958 54 3 0.327 faster 0 1.461814e+06 1.461818e+06 3.892
2 irregular 10 59 959 53 1.500000e+00 0.411 faster 0 1.461819e+06 1.461821e+06 2.084
2 irregular 10 60 960 52 3 0.291 faster 0 1.461822e+06 1.461826e+06 3.604
2 irregular 10 61 961 69 3 0.389 faster 1 1.461828e+06 1.461831e+06 3.542
2 irregular 10 62 962 51 3 0.300 slower 1 1.461833e+06 1.461837e+06 4.180
2 irregular 10 63 963 68 1 0.170 faster 1 1.461838e+06 1.461839e+06 1.635
2 irregular 10 64 964 68 1.500000e+00 0.457 faster 1 1.461841e+06 1.461843e+06 2.221
2 irregular 10 65 965 53 2 0.514 faster 0 1.461845e+06 1.461848e+06 2.457
2 irregular 10 66 966 52 2 0.498 faster 0 1.461849e+06 1.461852e+06 2.861
2 irregular 10 67 967 51 2.500000e+00 0.218 slower 1 1.461853e+06 1.461856e+06 3.258
2 irregular 10 68 968 51 1.500000e+00 0.424 faster 0 1.461858e+06 1.461860e+06 2.380
2 irregular 10 69 969 50 2 0.114 slower 1 1.461862e+06 1.461864e+06 2.603
2 irregular 10 70 970 51 1.500000e+00 0.346 faster 0 1.461866e+06 1.461869e+06 2.689
2 irregular 10 71 971 70 1 0.180 faster 1 1.461871e+06 1.461873e+06 1.508
2 irregular 10 72 972 50 2 0.331 slower 1 1.461874e+06 1.461877e+06 2.571
2 irregular 10 73 973 51 1 0.408 slower 1 1.461878e+06 1.461880e+06 1.475
2 irregular 10 74 974 69 1.500000e+00 0.220 faster 1 1.461881e+06 1.461883e+06 1.951
2 irregular 10 75 975 68 2.500000e+00 0.171 faster 1 1.461884e+06 1.461887e+06 3.075
2 irregular 10 76 976 52 2 0.120 slower 1 1.461888e+06 1.461890e+06 2.764
2 irregular 10 77 977 53 1 0.516 faster 0 1.461892e+06 1.461894e+06 1.597
2 irregular 10 78 978 68 2 0.239 faster 1 1.461895e+06 1.461897e+06 2.856
2 irregular 10 79 979 68 1.500000e+00 0.176 faster 1 1.461899e+06 1.461901e+06 2.016
2 irregular 10 80 980 67 2.500000e+00 0.350 faster 1 1.461903e+06 1.461906e+06 3.083
2 irregular 10 81 981 67 2 0.392 faster 1 1.461907e+06 1.461909e+06 2.400
2 irregular 10 82 982 66 1.500000e+00 0.143 slower 0 1.461911e+06 1.461913e+06 1.957
2 irregular 10 83 983 67 2.500000e+00 0.588 faster 1 1.461915e+06 1.461918e+06 3.109
2 irregular 10 84 984 53 3 0.406 slower 1 1.461919e+06 1.461923e+06 3.838
2 irregular 10 85 985 54 2.500000e+00 0.571 slower 1 1.461925e+06 1.461928e+06 3.419
2 irregular 10 86 986 54 2.500000e+00 0.226 faster 0 1.461930e+06 1.461933e+06 3.807
2 irregular 10 87 987 67 1 0.430 faster 1 1.461935e+06 1.461937e+06 1.564
2 irregular 10 88 988 54 3 0.305 faster 0 1.461938e+06 1.461942e+06 3.955
2 irregular 10 89 989 67 2.500000e+00 0.253 faster 1 1.461943e+06 1.461946e+06 3.072
2 irregular 10 90 990 67 1.500000e+00 0.305 faster 1 1.461947e+06 1.461950e+06 2.084
2 irregular 10 91 991 66 3 0.327 faster 1 1.461951e+06 1.461954e+06 3.580
2 irregular 10 92 992 54 2.500000e+00 0.354 faster 0 1.461955e+06 1.461958e+06 3.122
2 irregular 10 93 993 67 3 0.344 faster 1 1.461960e+06 1.461964e+06 3.814
2 irregular 10 94 994 66 2 0.147 faster 1 1.461965e+06 1.461967e+06 2.615
2 irregular 10 95 995 66 2 0.416 faster 1 1.461968e+06 1.461971e+06 2.476
2 irregular 10 96 996 65 1 0.265 faster 1 1.461973e+06 1.461975e+06 1.487
2 irregular 10 97 997 55 2 0.177 faster 0 1.461976e+06 1.461979e+06 2.487
2 irregular 10 98 998 66 3 0.196 faster 1 1.461980e+06 1.461983e+06 3.583
2 irregular 10 99 999 55 2.500000e+00 0.488 faster 0 1.461985e+06 1.461988e+06 2.923
2 irregular 10 100 1000 66 2.500000e+00 0.367 faster 1 1.461989e+06 1.461992e+06 3.045
