subNo condition blockNo trialNo trialID currentFrequency cueTargetInterval randomPreCueInterval response responseAccuracy startTime responseTime RT
4 regular 1 1 1 52 1 0.337 faster 0 5.096870e+05 5.096891e+05 2.134
4 regular 1 2 2 50 1 0.119 faster 0 5.096904e+05 5.096922e+05 1.778
4 regular 1 3 3 72 1 0.242 faster 1 5.096935e+05 5.096951e+05 1.651
4 regular 1 4 4 48 1 0.290 faster 0 5.096966e+05 5.096984e+05 1.794
4 regular 1 5 5 74 1 0.401 faster 1 5.097032e+05 5.097049e+05 1.696
4 regular 1 6 6 72 1 0.138 faster 1 5.097064e+05 5.097083e+05 1.870
4 regular 1 7 7 48 1 0.548 slower 1 5.097138e+05 5.097156e+05 1.852
4 regular 1 8 8 70 1 0.570 faster 1 5.097176e+05 5.097194e+05 1.809
4 regular 1 9 9 70 1 0.328 slower 0 5.097207e+05 5.097226e+05 1.901
4 regular 1 10 10 48 1 0.437 slower 1 5.097237e+05 5.097257e+05 2.019
4 regular 1 11 11 70 1 0.543 faster 1 5.097272e+05 5.097290e+05 1.815
4 regular 1 12 12 50 1 0.542 faster 0 5.097306e+05 5.097326e+05 1.931
4 regular 1 13 13 49 1 0.383 faster 0 5.097337e+05 5.097356e+05 1.921
4 regular 1 14 14 72 1 0.354 faster 1 5.097366e+05 5.097384e+05 1.804
4 regular 1 15 15 71 1 0.502 faster 1 5.097417e+05 5.097440e+05 2.280
4 regular 1 16 16 49 1 0.261 faster 0 5.097456e+05 5.097474e+05 1.851
4 regular 1 17 17 48 1 0.286 slower 1 5.097504e+05 5.097523e+05 1.815
4 regular 1 18 18 71 1 0.592 faster 1 5.097557e+05 5.097574e+05 1.713
4 regular 1 19 19 71 1 0.147 faster 1 5.097585e+05 5.097616e+05 3.092
4 regular 1 20 20 50 1 0.194 faster 0 5.097626e+05 5.097644e+05 1.735
4 regular 1 21 21 71 1 0.219 faster 1 5.097652e+05 5.097668e+05 1.561
4 regular 1 22 22 49 1 0.166 faster 0 5.097676e+05 5.097693e+05 1.651
4 regular 1 23 23 72 1 0.124 faster 1 5.097704e+05 5.097721e+05 1.763
4 regular 1 24 24 49 1 0.402 faster 0 5.097734e+05 5.097751e+05 1.691
4 regular 1 25 25 48 1 0.248 faster 0 5.097761e+05 5.097782e+05 2.154
4 regular 1 26 26 47 1 0.336 faster 0 5.097794e+05 5.097811e+05 1.711
4 regular 1 27 27 46 1 0.269 faster 0 5.097824e+05 5.097841e+05 1.759
4 regular 1 28 28 45 1 0.491 faster 0 5.097853e+05 5.097870e+05 1.737
4 regular 1 29 29 76 1 0.338 faster 1 5.097888e+05 5.097907e+05 1.814
4 regular 1 30 30 76 1 0.194 faster 1 5.097915e+05 5.097932e+05 1.699
4 regular 1 31 31 45 1 0.504 slower 1 5.097944e+05 5.097963e+05 1.934
4 regular 1 32 32 75 1 0.365 faster 1 5.097980e+05 5.097997e+05 1.655
4 regular 1 33 33 74 1 0.460 faster 1 5.098009e+05 5.098025e+05 1.633
4 regular 1 34 34 74 1 0.504 faster 1 5.098040e+05 5.098056e+05 1.568
4 regular 1 35 35 73 1 0.277 faster 1 5.098074e+05 5.098090e+05 1.604
4 regular 1 36 36 73 1 0.103 faster 1 5.098150e+05 5.098166e+05 1.563
4 regular 1 37 37 72 1 0.225 faster 1 5.098180e+05 5.098196e+05 1.668
4 regular 1 38 38 48 1 0.222 slower 1 5.098218e+05 5.098239e+05 2.189
4 regular 1 39 39 49 1 0.475 faster 0 5.098263e+05 5.098286e+05 2.333
4 regular 1 40 40 72 1 0.126 faster 1 5.098294e+05 5.098315e+05 2.138
4 regular 1 41 41 48 1 0.152 slower 1 5.098328e+05 5.098346e+05 1.870
4 regular 1 42 42 71 1 0.537 faster 1 5.098362e+05 5.098379e+05 1.670
4 regular 1 43 43 71 1 0.581 faster 1 5.098394e+05 5.098410e+05 1.533
4 regular 1 44 44 70 1 0.166 faster 1 5.098426e+05 5.098440e+05 1.462
4 regular 1 45 45 50 1 0.475 faster 0 5.098459e+05 5.098474e+05 1.481
4 regular 1 46 46 71 1 0.171 faster 1 5.098482e+05 5.098498e+05 1.627
4 regular 1 47 47 50 1 0.575 faster 0 5.098515e+05 5.098530e+05 1.544
4 regular 1 48 48 71 1 0.390 faster 1 5.098547e+05 5.098563e+05 1.662
4 regular 1 49 49 49 1 0.122 faster 0 5.098574e+05 5.098594e+05 2.018
4 regular 1 50 50 48 1 0.281 faster 0 5.098603e+05 5.098620e+05 1.665
4 regular 1 51 51 73 1 0.325 faster 1 5.098632e+05 5.098647e+05 1.537
4 regular 1 52 52 72 1 0.584 faster 1 5.098664e+05 5.098680e+05 1.517
4 regular 1 53 53 72 1 0.220 faster 1 5.098693e+05 5.098709e+05 1.586
4 regular 1 54 54 49 1 0.400 faster 0 5.098734e+05 5.098750e+05 1.538
4 regular 1 55 55 48 1 0.204 faster 0 5.098761e+05 5.098781e+05 1.995
4 regular 1 56 56 47 1 0.561 faster 0 5.098793e+05 5.098812e+05 1.905
4 regular 1 57 57 46 1 0.198 slower 1 5.098820e+05 5.098842e+05 2.198
4 regular 1 58 58 46 1 0.214 slower 1 5.098852e+05 5.098870e+05 1.766
4 regular 1 59 59 73 1 0.303 faster 1 5.098881e+05 5.098897e+05 1.574
4 regular 1 60 60 73 1 0.361 faster 1 5.098908e+05 5.098925e+05 1.768
4 regular 1 61 61 72 1 0.521 faster 1 5.098939e+05 5.098956e+05 1.725
4 regular 1 62 62 48 1 0.578 slower 1 5.098975e+05 5.098992e+05 1.758
4 regular 1 63 63 49 1 0.560 faster 0 5.099005e+05 5.099026e+05 2.043
4 regular 1 64 64 72 1 0.373 faster 1 5.099036e+05 5.099053e+05 1.641
4 regular 1 65 65 48 1 0.377 faster 0 5.099064e+05 5.099082e+05 1.789
4 regular 1 66 66 47 1 0.592 slower 1 5.099094e+05 5.099111e+05 1.643
4 regular 1 67 67 48 1 0.183 slower 1 5.099122e+05 5.099139e+05 1.660
4 regular 1 68 68 48 1 0.290 slower 1 5.099150e+05 5.099167e+05 1.667
4 regular 1 69 69 71 1 0.118 faster 1 5.099177e+05 5.099196e+05 1.948
4 regular 1 70 70 49 1 0.296 slower 1 5.099206e+05 5.099222e+05 1.614
4 regular 1 71 71 50 1 0.342 slower 1 5.099232e+05 5.099249e+05 1.694
4 regular 1 72 72 70 1 0.513 faster 1 5.099261e+05 5.099277e+05 1.603
4 regular 1 73 73 69 1 0.574 faster 1 5.099291e+05 5.099309e+05 1.799
4 regular 1 74 74 51 1 0.473 slower 1 5.099335e+05 5.099352e+05 1.745
4 regular 1 75 75 52 1 0.563 slower 1 5.099366e+05 5.099386e+05 2.021
4 regular 1 76 76 68 1 0.472 slower 0 5.099397e+05 5.099415e+05 1.838
4 regular 1 77 77 69 1 0.306 faster 1 5.099431e+05 5.099446e+05 1.512
4 regular 1 78 78 52 1 0.415 slower 1 5.099458e+05 5.099475e+05 1.734
4 regular 1 79 79 52 1 0.202 slower 1 5.099483e+05 5.099499e+05 1.529
4 regular 1 80 80 53 1 0.386 slower 1 5.099526e+05 5.099544e+05 1.769
4 regular 1 81 81 67 1 0.465 faster 1 5.099570e+05 5.099584e+05 1.454
4 regular 1 82 82 54 1 0.467 slower 1 5.099598e+05 5.099616e+05 1.751
4 regular 1 83 83 66 1 0.427 faster 1 5.099635e+05 5.099651e+05 1.623
4 regular 1 84 84 65 1 0.410 slower 0 5.099662e+05 5.099682e+05 2.028
4 regular 1 85 85 66 1 0.417 slower 0 5.099693e+05 5.099712e+05 1.932
4 regular 1 86 86 53 1 0.376 slower 1 5.099722e+05 5.099738e+05 1.581
4 regular 1 87 87 67 1 0.184 slower 0 5.099746e+05 5.099762e+05 1.576
4 regular 1 88 88 68 1 0.299 faster 1 5.099771e+05 5.099787e+05 1.538
4 regular 1 89 89 67 1 0.253 slower 0 5.099801e+05 5.099817e+05 1.617
4 regular 1 90 90 52 1 0.447 faster 0 5.099828e+05 5.099845e+05 1.737
4 regular 1 91 91 69 1 0.476 faster 1 5.099856e+05 5.099879e+05 2.279
4 regular 1 92 92 69 1 0.253 faster 1 5.099888e+05 5.099912e+05 2.436
4 regular 1 93 93 68 1 0.315 faster 1 5.099922e+05 5.099941e+05 1.874
4 regular 1 94 94 68 1 0.345 faster 1 5.099951e+05 5.099968e+05 1.763
4 regular 1 95 95 53 1 0.507 slower 1 5.099987e+05 5.100003e+05 1.659
4 regular 1 96 96 53 1 0.298 slower 1 5.100014e+05 5.100029e+05 1.534
4 regular 1 97 97 54 1 0.591 slower 1 5.100043e+05 5.100061e+05 1.780
4 regular 1 98 98 54 1 0.374 faster 0 5.100071e+05 5.100091e+05 1.977
4 regular 1 99 99 67 1 0.141 slower 0 5.100102e+05 5.100120e+05 1.761
4 regular 1 100 100 52 1 0.480 slower 1 5.100132e+05 5.100149e+05 1.728
4 irregular 2 1 101 53 1.500000e+00 0.456 faster 0 5.100553e+05 5.100584e+05 3.158
4 irregular 2 2 102 52 2 0.278 faster 0 5.100597e+05 5.100626e+05 2.861
4 irregular 2 3 103 51 1 0.404 faster 0 5.100637e+05 5.100655e+05 1.789
4 irregular 2 4 104 50 3 0.598 faster 0 5.100673e+05 5.100725e+05 5.177
4 irregular 2 5 105 71 2 0.377 faster 1 5.100735e+05 5.100765e+05 2.974
4 irregular 2 6 106 49 3 0.534 faster 0 5.100777e+05 5.100825e+05 4.740
4 irregular 2 7 107 72 3 0.442 faster 1 5.100835e+05 5.100872e+05 3.668
4 irregular 2 8 108 71 1.500000e+00 0.188 faster 1 5.100882e+05 5.100903e+05 2.128
4 irregular 2 9 109 49 2.500000e+00 0.433 faster 0 5.100914e+05 5.100950e+05 3.554
4 irregular 2 10 110 72 2.500000e+00 0.318 faster 1 5.100966e+05 5.100997e+05 3.110
4 irregular 2 11 111 71 3 0.187 faster 1 5.101005e+05 5.101042e+05 3.610
4 irregular 2 12 112 71 2 0.194 faster 1 5.101065e+05 5.101091e+05 2.664
4 irregular 2 13 113 50 2 0.272 faster 0 5.101101e+05 5.101127e+05 2.677
4 irregular 2 14 114 49 2 0.552 faster 0 5.101139e+05 5.101166e+05 2.672
4 irregular 2 15 115 48 2 0.591 faster 0 5.101178e+05 5.101204e+05 2.590
4 irregular 2 16 116 73 3 0.440 faster 1 5.101226e+05 5.101263e+05 3.703
4 irregular 2 17 117 73 2.500000e+00 0.527 faster 1 5.101275e+05 5.101309e+05 3.402
4 irregular 2 18 118 72 3 0.280 faster 1 5.101325e+05 5.101368e+05 4.303
4 irregular 2 19 119 48 1 0.497 faster 0 5.101381e+05 5.101407e+05 2.682
4 irregular 2 20 120 47 2 0.301 slower 1 5.101417e+05 5.101451e+05 3.414
4 irregular 2 21 121 48 1 0.498 faster 0 5.101463e+05 5.101483e+05 2.010
4 irregular 2 22 122 47 1.500000e+00 0.510 faster 0 5.101497e+05 5.101519e+05 2.242
4 irregular 2 23 123 46 1.500000e+00 0.425 faster 0 5.101530e+05 5.101551e+05 2.141
4 irregular 2 24 124 75 1.500000e+00 0.393 slower 0 5.101562e+05 5.101584e+05 2.234
4 irregular 2 25 125 44 1.500000e+00 0.267 slower 1 5.101593e+05 5.101616e+05 2.328
4 irregular 2 26 126 44 1.500000e+00 0.126 slower 1 5.101642e+05 5.101665e+05 2.297
4 irregular 2 27 127 45 3 0.301 slower 1 5.101679e+05 5.101717e+05 3.774
4 irregular 2 28 128 75 3 0.348 slower 0 5.101739e+05 5.101778e+05 3.861
4 irregular 2 29 129 44 1.500000e+00 0.107 slower 1 5.101802e+05 5.101825e+05 2.313
4 irregular 2 30 130 75 1 0.480 slower 0 5.101837e+05 5.101856e+05 1.932
4 irregular 2 31 131 44 3 0.118 slower 1 5.101864e+05 5.101903e+05 3.950
4 irregular 2 32 132 76 3 0.189 slower 0 5.101912e+05 5.101952e+05 4.002
4 irregular 2 33 133 77 2.500000e+00 0.499 slower 0 5.101976e+05 5.102011e+05 3.537
4 irregular 2 34 134 42 1 0.106 slower 1 5.102019e+05 5.102041e+05 2.171
4 irregular 2 35 135 77 1.500000e+00 0.538 slower 0 5.102053e+05 5.102077e+05 2.374
4 irregular 2 36 136 42 2 0.239 slower 1 5.102086e+05 5.102115e+05 2.852
4 irregular 2 37 137 78 1.500000e+00 0.516 slower 0 5.102126e+05 5.102149e+05 2.247
4 irregular 2 38 138 41 1 0.402 slower 1 5.102160e+05 5.102177e+05 1.776
4 irregular 2 39 139 78 3 0.392 slower 0 5.102188e+05 5.102227e+05 3.905
4 irregular 2 40 140 79 2.500000e+00 0.417 slower 0 5.102239e+05 5.102274e+05 3.465
4 irregular 2 41 141 40 1 0.520 slower 1 5.102300e+05 5.102319e+05 1.912
4 irregular 2 42 142 80 3 0.223 slower 0 5.102328e+05 5.102366e+05 3.828
4 irregular 2 43 143 39 2.500000e+00 0.530 none 2 5.102380e+05 5.102435e+05 5.499
4 irregular 2 44 144 39 1 0.523 slower 1 5.102447e+05 5.102464e+05 1.663
4 irregular 2 45 145 80 1 0.425 slower 0 5.102489e+05 5.102509e+05 1.992
4 irregular 2 46 146 81 1 0.228 slower 0 5.102518e+05 5.102540e+05 2.217
4 irregular 2 47 147 82 1.500000e+00 0.182 slower 0 5.102556e+05 5.102582e+05 2.628
4 irregular 2 48 148 83 2 0.587 faster 1 5.102602e+05 5.102647e+05 4.467
4 irregular 2 49 149 83 2 0.573 faster 1 5.102659e+05 5.102690e+05 3.068
4 irregular 2 50 150 82 1.500000e+00 0.531 faster 1 5.102702e+05 5.102724e+05 2.244
4 irregular 2 51 151 38 1 0.541 faster 0 5.102736e+05 5.102755e+05 1.864
4 irregular 2 52 152 83 2.500000e+00 0.345 faster 1 5.102765e+05 5.102803e+05 3.785
4 irregular 2 53 153 82 1 0.282 faster 1 5.102815e+05 5.102831e+05 1.665
4 irregular 2 54 154 82 2 0.346 faster 1 5.102842e+05 5.102870e+05 2.760
4 irregular 2 55 155 39 2 0.205 slower 1 5.102878e+05 5.102906e+05 2.739
4 irregular 2 56 156 39 2 0.535 slower 1 5.102917e+05 5.102944e+05 2.720
4 irregular 2 57 157 80 1.500000e+00 0.151 slower 0 5.102953e+05 5.102981e+05 2.790
4 irregular 2 58 158 81 2 0.448 slower 0 5.102992e+05 5.103023e+05 3.103
4 irregular 2 59 159 38 2.500000e+00 0.551 slower 1 5.103035e+05 5.103068e+05 3.306
4 irregular 2 60 160 38 3 0.201 slower 1 5.103077e+05 5.103114e+05 3.689
4 irregular 2 61 161 39 1 0.363 slower 1 5.103124e+05 5.103143e+05 1.861
4 irregular 2 62 162 39 3 0.461 slower 1 5.103154e+05 5.103192e+05 3.804
4 irregular 2 63 163 40 2.500000e+00 0.558 slower 1 5.103204e+05 5.103243e+05 3.901
4 irregular 2 64 164 80 1 0.297 slower 0 5.103253e+05 5.103275e+05 2.232
4 irregular 2 65 165 81 2 0.596 slower 0 5.103290e+05 5.103321e+05 3.083
4 irregular 2 66 166 82 2 0.299 faster 1 5.103330e+05 5.103363e+05 3.258
4 irregular 2 67 167 81 3 0.372 faster 1 5.103373e+05 5.103413e+05 3.919
4 irregular 2 68 168 39 2.500000e+00 0.351 slower 1 5.103423e+05 5.103457e+05 3.469
4 irregular 2 69 169 40 3 0.281 none 2 5.103467e+05 5.103527e+05 5.999
4 irregular 2 70 170 80 1.500000e+00 0.243 faster 1 5.103536e+05 5.103560e+05 2.452
4 irregular 2 71 171 80 3 0.379 faster 1 5.103571e+05 5.103611e+05 4.008
4 irregular 2 72 172 41 1.500000e+00 0.381 faster 0 5.103622e+05 5.103651e+05 2.919
4 irregular 2 73 173 40 2 0.217 slower 1 5.103660e+05 5.103688e+05 2.800
4 irregular 2 74 174 80 1 0.140 faster 1 5.103696e+05 5.103721e+05 2.533
4 irregular 2 75 175 79 2 0.178 faster 1 5.103730e+05 5.103758e+05 2.832
4 irregular 2 76 176 41 2.500000e+00 0.435 slower 1 5.103769e+05 5.103801e+05 3.193
4 irregular 2 77 177 42 2 0.386 slower 1 5.103813e+05 5.103842e+05 2.944
4 irregular 2 78 178 42 1.500000e+00 0.557 slower 1 5.103854e+05 5.103881e+05 2.657
4 irregular 2 79 179 77 1 0.576 slower 0 5.103910e+05 5.103931e+05 2.139
4 irregular 2 80 180 78 2.500000e+00 0.123 slower 0 5.103939e+05 5.103976e+05 3.632
4 irregular 2 81 181 79 1.500000e+00 0.185 slower 0 5.103992e+05 5.104026e+05 3.407
4 irregular 2 82 182 40 3 0.102 slower 1 5.104039e+05 5.104081e+05 4.195
4 irregular 2 83 183 80 1 0.259 slower 0 5.104112e+05 5.104131e+05 1.886
4 irregular 2 84 184 39 2.500000e+00 0.418 none 2 5.104141e+05 5.104196e+05 5.499
4 irregular 2 85 185 39 1 0.121 slower 1 5.104204e+05 5.104223e+05 1.845
4 irregular 2 86 186 40 2.500000e+00 0.558 none 2 5.104235e+05 5.104290e+05 5.499
4 irregular 2 87 187 80 2 0.162 faster 1 5.104298e+05 5.104329e+05 3.098
4 irregular 2 88 188 40 2.500000e+00 0.188 slower 1 5.104344e+05 5.104377e+05 3.257
4 irregular 2 89 189 79 2.500000e+00 0.124 faster 1 5.104385e+05 5.104421e+05 3.657
4 irregular 2 90 190 41 3 0.141 none 2 5.104429e+05 5.104489e+05 6.000
4 irregular 2 91 191 79 2.500000e+00 0.433 faster 1 5.104501e+05 5.104536e+05 3.467
4 irregular 2 92 192 78 1.500000e+00 0.324 faster 1 5.104549e+05 5.104571e+05 2.229
4 irregular 2 93 193 78 2.500000e+00 0.461 faster 1 5.104583e+05 5.104615e+05 3.178
4 irregular 2 94 194 43 2.500000e+00 0.222 slower 1 5.104626e+05 5.104666e+05 4.063
4 irregular 2 95 195 43 1.500000e+00 0.140 slower 1 5.104683e+05 5.104705e+05 2.168
4 irregular 2 96 196 44 1.500000e+00 0.581 slower 1 5.104717e+05 5.104739e+05 2.154
4 irregular 2 97 197 76 1 0.595 faster 1 5.104752e+05 5.104769e+05 1.707
4 irregular 2 98 198 75 1 0.549 faster 1 5.104781e+05 5.104799e+05 1.806
4 irregular 2 99 199 45 3 0.554 slower 1 5.104818e+05 5.104856e+05 3.817
4 irregular 2 100 200 74 2.500000e+00 0.545 faster 1 5.104868e+05 5.104905e+05 3.708
4 regular 3 1 201 46 2 0.440 slower 1 5.105183e+05 5.105216e+05 3.359
4 regular 3 2 202 47 2 0.571 slower 1 5.105233e+05 5.105266e+05 3.320
4 regular 3 3 203 73 2 0.427 faster 1 5.105283e+05 5.105311e+05 2.786
4 regular 3 4 204 72 2 0.520 faster 1 5.105322e+05 5.105349e+05 2.677
4 regular 3 5 205 48 2 0.285 faster 0 5.105358e+05 5.105386e+05 2.761
4 regular 3 6 206 73 2 0.192 slower 0 5.105394e+05 5.105423e+05 2.836
4 regular 3 7 207 74 2 0.475 slower 0 5.105436e+05 5.105464e+05 2.835
4 regular 3 8 208 45 2 0.544 slower 1 5.105477e+05 5.105504e+05 2.656
4 regular 3 9 209 46 2 0.132 slower 1 5.105512e+05 5.105539e+05 2.707
4 regular 3 10 210 46 2 0.106 none 2 5.105546e+05 5.105596e+05 5.000
4 regular 3 11 211 46 2 0.565 slower 1 5.105608e+05 5.105635e+05 2.701
4 regular 3 12 212 47 2 0.560 slower 1 5.105647e+05 5.105673e+05 2.613
4 regular 3 13 213 47 2 0.125 slower 1 5.105681e+05 5.105707e+05 2.641
4 regular 3 14 214 48 2 0.391 slower 1 5.105721e+05 5.105747e+05 2.673
4 regular 3 15 215 72 2 0.260 faster 1 5.105760e+05 5.105786e+05 2.662
4 regular 3 16 216 49 2 0.147 slower 1 5.105796e+05 5.105823e+05 2.702
4 regular 3 17 217 49 2 0.414 slower 1 5.105835e+05 5.105863e+05 2.780
4 regular 3 18 218 70 2 0.191 faster 1 5.105875e+05 5.105902e+05 2.722
4 regular 3 19 219 70 2 0.177 slower 0 5.105912e+05 5.105941e+05 2.929
4 regular 3 20 220 49 2 0.484 slower 1 5.105952e+05 5.105979e+05 2.693
4 regular 3 21 221 70 2 0.474 slower 0 5.106004e+05 5.106033e+05 2.931
4 regular 3 22 222 71 2 0.131 faster 1 5.106047e+05 5.106074e+05 2.643
4 regular 3 23 223 71 2 0.465 faster 1 5.106089e+05 5.106116e+05 2.669
4 regular 3 24 224 50 2 0.295 faster 0 5.106125e+05 5.106151e+05 2.636
4 regular 3 25 225 49 2 0.256 faster 0 5.106161e+05 5.106190e+05 2.881
4 regular 3 26 226 72 2 0.261 faster 1 5.106199e+05 5.106227e+05 2.824
4 regular 3 27 227 48 2 0.330 slower 1 5.106237e+05 5.106263e+05 2.654
4 regular 3 28 228 71 2 0.157 faster 1 5.106273e+05 5.106299e+05 2.608
4 regular 3 29 229 71 2 0.501 faster 1 5.106346e+05 5.106373e+05 2.732
4 regular 3 30 230 50 2 0.571 faster 0 5.106408e+05 5.106437e+05 2.950
4 regular 3 31 231 71 2 0.105 faster 1 5.106444e+05 5.106471e+05 2.623
4 regular 3 32 232 71 2 0.381 faster 1 5.106481e+05 5.106506e+05 2.533
4 regular 3 33 233 50 2 0.281 faster 0 5.106515e+05 5.106541e+05 2.561
4 regular 3 34 234 71 2 0.228 faster 1 5.106550e+05 5.106577e+05 2.695
4 regular 3 35 235 71 2 0.357 faster 1 5.106591e+05 5.106617e+05 2.573
4 regular 3 36 236 50 2 0.258 slower 1 5.106631e+05 5.106664e+05 3.322
4 regular 3 37 237 70 2 0.423 faster 1 5.106679e+05 5.106705e+05 2.628
4 regular 3 38 238 51 2 0.593 slower 1 5.106793e+05 5.106820e+05 2.719
4 regular 3 39 239 51 2 0.459 slower 1 5.106831e+05 5.106857e+05 2.572
4 regular 3 40 240 52 2 0.240 slower 1 5.106871e+05 5.106902e+05 3.052
4 regular 3 41 241 68 2 0.213 faster 1 5.106970e+05 5.106999e+05 2.892
4 regular 3 42 242 67 2 0.313 slower 0 5.107009e+05 5.107040e+05 3.127
4 regular 3 43 243 52 2 0.493 slower 1 5.107058e+05 5.107087e+05 2.873
4 regular 3 44 244 52 2 0.466 slower 1 5.107098e+05 5.107126e+05 2.795
4 regular 3 45 245 67 2 0.133 faster 1 5.107140e+05 5.107167e+05 2.699
4 regular 3 46 246 53 2 0.314 faster 0 5.107177e+05 5.107203e+05 2.594
4 regular 3 47 247 68 2 0.396 faster 1 5.107214e+05 5.107242e+05 2.740
4 regular 3 48 248 53 2 0.494 faster 0 5.107262e+05 5.107291e+05 2.947
4 regular 3 49 249 52 2 0.246 slower 1 5.107307e+05 5.107337e+05 3.045
4 regular 3 50 250 68 2 0.159 faster 1 5.107345e+05 5.107375e+05 2.954
4 regular 3 51 251 67 2 0.218 faster 1 5.107383e+05 5.107409e+05 2.596
4 regular 3 52 252 67 2 0.334 faster 1 5.107425e+05 5.107452e+05 2.642
4 regular 3 53 253 54 2 0.480 slower 1 5.107463e+05 5.107492e+05 2.876
4 regular 3 54 254 66 2 0.226 faster 1 5.107500e+05 5.107530e+05 2.940
4 regular 3 55 255 55 2 0.582 slower 1 5.107593e+05 5.107623e+05 3.037
4 regular 3 56 256 65 2 0.525 faster 1 5.107641e+05 5.107674e+05 3.265
4 regular 3 57 257 56 2 0.572 slower 1 5.107699e+05 5.107726e+05 2.684
4 regular 3 58 258 64 2 0.294 faster 1 5.107742e+05 5.107775e+05 3.311
4 regular 3 59 259 57 2 0.167 slower 1 5.107783e+05 5.107817e+05 3.375
4 regular 3 60 260 63 2 0.340 slower 0 5.107827e+05 5.107853e+05 2.674
4 regular 3 61 261 56 2 0.405 slower 1 5.107865e+05 5.107895e+05 3.072
4 regular 3 62 262 57 2 0.420 slower 1 5.107911e+05 5.107940e+05 2.899
4 regular 3 63 263 63 2 0.472 slower 0 5.107952e+05 5.107980e+05 2.860
4 regular 3 64 264 64 2 0.291 faster 1 5.107989e+05 5.108017e+05 2.714
4 regular 3 65 265 63 2 0.485 slower 0 5.108041e+05 5.108071e+05 2.969
4 regular 3 66 266 64 2 0.377 slower 0 5.108081e+05 5.108116e+05 3.500
4 regular 3 67 267 65 2 0.426 none 2 5.108170e+05 5.108220e+05 4.999
4 regular 3 68 268 55 2 0.141 slower 1 5.108231e+05 5.108268e+05 3.719
4 regular 3 69 269 65 2 0.361 slower 0 5.108279e+05 5.108306e+05 2.755
4 regular 3 70 270 66 2 0.185 faster 1 5.108316e+05 5.108350e+05 3.456
4 regular 3 71 271 65 2 0.413 faster 1 5.108361e+05 5.108396e+05 3.491
4 regular 3 72 272 55 2 0.537 slower 1 5.108408e+05 5.108436e+05 2.760
4 regular 3 73 273 56 2 0.475 slower 1 5.108459e+05 5.108497e+05 3.741
4 regular 3 74 274 64 2 0.379 faster 1 5.108510e+05 5.108548e+05 3.744
4 regular 3 75 275 63 2 0.350 faster 1 5.108558e+05 5.108596e+05 3.874
4 regular 3 76 276 63 2 0.319 slower 0 5.108614e+05 5.108643e+05 2.878
4 regular 3 77 277 56 2 0.301 slower 1 5.108659e+05 5.108686e+05 2.662
4 regular 3 78 278 57 2 0.362 slower 1 5.108697e+05 5.108723e+05 2.615
4 regular 3 79 279 57 2 0.469 slower 1 5.108736e+05 5.108763e+05 2.757
4 regular 3 80 280 58 2 0.467 slower 1 5.108774e+05 5.108801e+05 2.687
4 regular 3 81 281 58 2 0.533 faster 0 5.108813e+05 5.108845e+05 3.190
4 regular 3 82 282 63 2 0.333 faster 1 5.108855e+05 5.108884e+05 2.967
4 regular 3 83 283 62 2 0.438 faster 1 5.108895e+05 5.108922e+05 2.659
4 regular 3 84 284 62 2 0.252 none 2 5.108932e+05 5.108982e+05 5.000
4 regular 3 85 285 62 2 0.565 faster 1 5.108995e+05 5.109022e+05 2.672
4 regular 3 86 286 59 2 0.242 slower 1 5.109031e+05 5.109059e+05 2.776
4 regular 3 87 287 61 2 0.315 faster 1 5.109068e+05 5.109099e+05 3.097
4 regular 3 88 288 61 2 0.422 slower 0 5.109116e+05 5.109143e+05 2.674
4 regular 3 89 289 58 2 0.224 slower 1 5.109160e+05 5.109186e+05 2.527
4 regular 3 90 290 58 2 0.106 slower 1 5.109194e+05 5.109219e+05 2.506
4 regular 3 91 291 59 2 0.129 slower 1 5.109231e+05 5.109256e+05 2.533
4 regular 3 92 292 59 2 0.524 faster 0 5.109276e+05 5.109305e+05 2.874
4 regular 3 93 293 62 2 0.588 slower 0 5.109318e+05 5.109347e+05 2.864
4 regular 3 94 294 57 2 0.429 slower 1 5.109364e+05 5.109390e+05 2.667
4 regular 3 95 295 62 2 0.106 slower 0 5.109401e+05 5.109432e+05 3.052
4 regular 3 96 296 57 2 0.516 slower 1 5.109443e+05 5.109481e+05 3.769
4 regular 3 97 297 63 2 0.302 faster 1 5.109490e+05 5.109517e+05 2.697
4 regular 3 98 298 58 2 0.359 faster 0 5.109527e+05 5.109556e+05 2.859
4 regular 3 99 299 63 2 0.211 none 2 5.109745e+05 5.109795e+05 4.999
4 regular 3 100 300 57 2 0.368 slower 1 5.109805e+05 5.109832e+05 2.677
4 irregular 4 1 301 57 1 0.281 faster 0 5.115215e+05 5.115235e+05 2.025
4 irregular 4 2 302 64 3 0.259 faster 1 5.115244e+05 5.115285e+05 4.100
4 irregular 4 3 303 63 2 0.379 faster 1 5.115302e+05 5.115330e+05 2.777
4 irregular 4 4 304 63 2.500000e+00 0.435 faster 1 5.115349e+05 5.115381e+05 3.201
4 irregular 4 5 305 58 2 0.322 faster 0 5.115391e+05 5.115418e+05 2.627
4 irregular 4 6 306 57 2 0.468 slower 1 5.115430e+05 5.115459e+05 2.925
4 irregular 4 7 307 57 1.500000e+00 0.251 faster 0 5.115468e+05 5.115493e+05 2.494
4 irregular 4 8 308 56 3 0.422 slower 1 5.115504e+05 5.115541e+05 3.703
4 irregular 4 9 309 57 1.500000e+00 0.158 faster 0 5.115566e+05 5.115589e+05 2.251
4 irregular 4 10 310 64 2.500000e+00 0.463 faster 1 5.115607e+05 5.115638e+05 3.108
4 irregular 4 11 311 56 3 0.471 slower 1 5.115651e+05 5.115688e+05 3.720
4 irregular 4 12 312 57 1 0.282 slower 1 5.115703e+05 5.115720e+05 1.740
4 irregular 4 13 313 63 3 0.340 faster 1 5.115783e+05 5.115820e+05 3.646
4 irregular 4 14 314 62 2.500000e+00 0.359 faster 1 5.115830e+05 5.115861e+05 3.011
4 irregular 4 15 315 58 2 0.513 slower 1 5.115877e+05 5.115904e+05 2.702
4 irregular 4 16 316 61 1.500000e+00 0.503 faster 1 5.115922e+05 5.115949e+05 2.709
4 irregular 4 17 317 59 2.500000e+00 0.554 faster 0 5.115961e+05 5.115992e+05 3.111
4 irregular 4 18 318 58 1 0.546 faster 0 5.116004e+05 5.116026e+05 2.196
4 irregular 4 19 319 63 1.500000e+00 0.488 faster 1 5.116038e+05 5.116060e+05 2.202
4 irregular 4 20 320 58 1 0.251 faster 0 5.116073e+05 5.116098e+05 2.492
4 irregular 4 21 321 63 1.500000e+00 0.183 faster 1 5.116107e+05 5.116132e+05 2.513
4 irregular 4 22 322 57 1.500000e+00 0.366 slower 1 5.116142e+05 5.116168e+05 2.577
4 irregular 4 23 323 62 3 0.506 faster 1 5.116193e+05 5.116229e+05 3.615
4 irregular 4 24 324 58 2 0.110 faster 0 5.116251e+05 5.116277e+05 2.619
4 irregular 4 25 325 63 1 0.382 faster 1 5.116300e+05 5.116316e+05 1.590
4 irregular 4 26 326 58 2.500000e+00 0.483 faster 0 5.116328e+05 5.116357e+05 2.969
4 irregular 4 27 327 63 2 0.165 faster 1 5.116374e+05 5.116401e+05 2.688
4 irregular 4 28 328 63 2.500000e+00 0.441 faster 1 5.116415e+05 5.116446e+05 3.103
4 irregular 4 29 329 58 2.500000e+00 0.441 slower 1 5.116461e+05 5.116494e+05 3.297
4 irregular 4 30 330 58 1 0.371 faster 0 5.116507e+05 5.116523e+05 1.633
4 irregular 4 31 331 57 2.500000e+00 0.256 faster 0 5.116537e+05 5.116573e+05 3.614
4 irregular 4 32 332 56 2.500000e+00 0.350 slower 1 5.116583e+05 5.116615e+05 3.190
4 irregular 4 33 333 57 2.500000e+00 0.278 faster 0 5.116629e+05 5.116660e+05 3.126
4 irregular 4 34 334 56 2.500000e+00 0.192 slower 1 5.116687e+05 5.116718e+05 3.127
4 irregular 4 35 335 56 2.500000e+00 0.432 faster 0 5.116737e+05 5.116770e+05 3.306
4 irregular 4 36 336 55 3 0.536 faster 0 5.116791e+05 5.116829e+05 3.790
4 irregular 4 37 337 54 1.500000e+00 0.428 faster 0 5.116843e+05 5.116864e+05 2.130
4 irregular 4 38 338 53 1 0.266 slower 1 5.116879e+05 5.116899e+05 1.971
4 irregular 4 39 339 66 3 0.452 faster 1 5.116919e+05 5.116955e+05 3.617
4 irregular 4 40 340 66 2.500000e+00 0.447 faster 1 5.116974e+05 5.117005e+05 3.071
4 irregular 4 41 341 55 1.500000e+00 0.367 slower 1 5.117033e+05 5.117054e+05 2.154
4 irregular 4 42 342 65 1 0.482 faster 1 5.117074e+05 5.117090e+05 1.618
4 irregular 4 43 343 56 3 0.296 slower 1 5.117111e+05 5.117150e+05 3.866
4 irregular 4 44 344 64 1 0.409 faster 1 5.117167e+05 5.117183e+05 1.545
4 irregular 4 45 345 63 2 0.117 faster 1 5.117191e+05 5.117217e+05 2.642
4 irregular 4 46 346 63 1.500000e+00 0.484 faster 1 5.117231e+05 5.117253e+05 2.146
4 irregular 4 47 347 62 2 0.175 faster 1 5.117261e+05 5.117286e+05 2.502
4 irregular 4 48 348 62 1.500000e+00 0.374 faster 1 5.117298e+05 5.117317e+05 1.957
4 irregular 4 49 349 59 1.500000e+00 0.113 faster 0 5.117333e+05 5.117352e+05 1.973
4 irregular 4 50 350 62 2 0.432 faster 1 5.117370e+05 5.117395e+05 2.540
4 irregular 4 51 351 62 1 0.377 faster 1 5.117411e+05 5.117427e+05 1.640
4 irregular 4 52 352 61 2 0.382 faster 1 5.117438e+05 5.117462e+05 2.412
4 irregular 4 53 353 59 1.500000e+00 0.373 faster 0 5.117485e+05 5.117505e+05 1.973
4 irregular 4 54 354 58 3 0.316 slower 1 5.117515e+05 5.117558e+05 4.277
4 irregular 4 55 355 59 3 0.405 faster 0 5.117578e+05 5.117614e+05 3.600
4 irregular 4 56 356 62 3 0.139 faster 1 5.117634e+05 5.117671e+05 3.736
4 irregular 4 57 357 62 2.500000e+00 0.395 faster 1 5.117682e+05 5.117713e+05 3.058
4 irregular 4 58 358 61 1.500000e+00 0.136 faster 1 5.117728e+05 5.117747e+05 1.961
4 irregular 4 59 359 61 3 0.124 faster 1 5.117757e+05 5.117793e+05 3.574
4 irregular 4 60 360 59 2 0.525 faster 0 5.117805e+05 5.117834e+05 2.846
4 irregular 4 61 361 58 1.500000e+00 0.585 faster 0 5.117853e+05 5.117873e+05 2.045
4 irregular 4 62 362 63 1.500000e+00 0.540 faster 1 5.117890e+05 5.117909e+05 1.910
4 irregular 4 63 363 57 3 0.155 slower 1 5.117920e+05 5.117959e+05 3.868
4 irregular 4 64 364 62 3 0.102 faster 1 5.117967e+05 5.118003e+05 3.609
4 irregular 4 65 365 58 1 0.118 faster 0 5.118014e+05 5.118029e+05 1.476
4 irregular 4 66 366 57 2 0.321 slower 1 5.118038e+05 5.118066e+05 2.776
4 irregular 4 67 367 58 1 0.173 faster 0 5.118085e+05 5.118100e+05 1.528
4 irregular 4 68 368 57 1 0.588 faster 0 5.118113e+05 5.118127e+05 1.449
4 irregular 4 69 369 64 2.500000e+00 0.382 slower 0 5.118138e+05 5.118170e+05 3.189
4 irregular 4 70 370 65 2.500000e+00 0.195 faster 1 5.118182e+05 5.118213e+05 3.137
4 irregular 4 71 371 55 1.500000e+00 0.136 slower 1 5.118225e+05 5.118248e+05 2.281
4 irregular 4 72 372 56 1 0.483 slower 1 5.118267e+05 5.118287e+05 2.025
4 irregular 4 73 373 64 1 0.435 faster 1 5.118298e+05 5.118316e+05 1.774
4 irregular 4 74 374 57 2.500000e+00 0.346 faster 0 5.118332e+05 5.118363e+05 3.164
4 irregular 4 75 375 64 1 0.416 faster 1 5.118374e+05 5.118391e+05 1.660
4 irregular 4 76 376 64 1 0.561 faster 1 5.118417e+05 5.118436e+05 1.952
4 irregular 4 77 377 63 1 0.182 slower 0 5.118450e+05 5.118471e+05 2.068
4 irregular 4 78 378 64 1 0.380 slower 0 5.118481e+05 5.118501e+05 2.035
4 irregular 4 79 379 65 2 0.539 faster 1 5.118515e+05 5.118545e+05 2.995
4 irregular 4 80 380 55 1.500000e+00 0.438 slower 1 5.118556e+05 5.118579e+05 2.359
4 irregular 4 81 381 64 2 0.368 faster 1 5.118590e+05 5.118618e+05 2.768
4 irregular 4 82 382 56 2.500000e+00 0.317 slower 1 5.118627e+05 5.118669e+05 4.152
4 irregular 4 83 383 63 1.500000e+00 0.113 slower 0 5.118679e+05 5.118707e+05 2.878
4 irregular 4 84 384 56 3 0.515 faster 0 5.118719e+05 5.118766e+05 4.646
4 irregular 4 85 385 55 3 0.388 faster 0 5.118776e+05 5.118819e+05 4.274
4 irregular 4 86 386 66 1.500000e+00 0.375 slower 0 5.118829e+05 5.118855e+05 2.613
4 irregular 4 87 387 67 2 0.123 faster 1 5.118863e+05 5.118897e+05 3.372
4 irregular 4 88 388 67 1.500000e+00 0.501 faster 1 5.118909e+05 5.118931e+05 2.252
4 irregular 4 89 389 66 3 0.587 faster 1 5.119087e+05 5.119124e+05 3.703
4 irregular 4 90 390 66 2 0.417 faster 1 5.119143e+05 5.119170e+05 2.707
4 irregular 4 91 391 65 2.500000e+00 0.321 faster 1 5.119183e+05 5.119214e+05 3.095
4 irregular 4 92 392 55 3 0.142 faster 0 5.119225e+05 5.119260e+05 3.528
4 irregular 4 93 393 54 2 0.183 slower 1 5.119276e+05 5.119306e+05 2.987
4 irregular 4 94 394 65 2.500000e+00 0.259 faster 1 5.119326e+05 5.119367e+05 4.178
4 irregular 4 95 395 65 3 0.223 faster 1 5.119612e+05 5.119648e+05 3.669
4 irregular 4 96 396 64 3 0.125 faster 1 5.119657e+05 5.119694e+05 3.709
4 irregular 4 97 397 64 1 0.243 faster 1 5.119703e+05 5.119720e+05 1.703
4 irregular 4 98 398 57 2 0.311 slower 1 5.119730e+05 5.119758e+05 2.815
4 irregular 4 99 399 57 2 0.247 slower 1 5.119779e+05 5.119806e+05 2.704
4 irregular 4 100 400 58 2 0.342 faster 0 5.119826e+05 5.119854e+05 2.846
4 regular 5 1 401 63 1.500000e+00 0.313 faster 1 5.119994e+05 5.120015e+05 2.150
4 regular 5 2 402 57 1.500000e+00 0.409 faster 0 5.120026e+05 5.120045e+05 1.920
4 regular 5 3 403 64 1.500000e+00 0.433 faster 1 5.120063e+05 5.120084e+05 2.064
4 regular 5 4 404 63 1.500000e+00 0.286 faster 1 5.120100e+05 5.120119e+05 1.919
4 regular 5 5 405 63 1.500000e+00 0.446 faster 1 5.120135e+05 5.120155e+05 1.916
4 regular 5 6 406 62 1.500000e+00 0.166 slower 0 5.120175e+05 5.120198e+05 2.236
4 regular 5 7 407 57 1.500000e+00 0.233 slower 1 5.120215e+05 5.120236e+05 2.110
4 regular 5 8 408 63 1.500000e+00 0.383 slower 0 5.120255e+05 5.120283e+05 2.729
4 regular 5 9 409 56 1.500000e+00 0.179 faster 0 5.120360e+05 5.120389e+05 2.876
4 regular 5 10 410 65 1.500000e+00 0.476 faster 1 5.120400e+05 5.120431e+05 3.013
4 regular 5 11 411 64 1.500000e+00 0.547 faster 1 5.120466e+05 5.120491e+05 2.547
4 regular 5 12 412 56 1.500000e+00 0.342 slower 1 5.120514e+05 5.120537e+05 2.308
4 regular 5 13 413 57 1.500000e+00 0.387 slower 1 5.120551e+05 5.120572e+05 2.173
4 regular 5 14 414 63 1.500000e+00 0.354 slower 0 5.120593e+05 5.120618e+05 2.480
4 regular 5 15 415 64 1.500000e+00 0.570 slower 0 5.120634e+05 5.120658e+05 2.461
4 regular 5 16 416 65 1.500000e+00 0.463 slower 0 5.120700e+05 5.120733e+05 3.347
4 regular 5 17 417 66 1.500000e+00 0.161 slower 0 5.120771e+05 5.120793e+05 2.192
4 regular 5 18 418 53 1.500000e+00 0.502 slower 1 5.120824e+05 5.120846e+05 2.213
4 regular 5 19 419 66 1.500000e+00 0.454 faster 1 5.120994e+05 5.121015e+05 2.039
4 regular 5 20 420 54 1.500000e+00 0.466 slower 1 5.121037e+05 5.121059e+05 2.138
4 regular 5 21 421 55 1.500000e+00 0.497 slower 1 5.121084e+05 5.121104e+05 2.034
4 regular 5 22 422 55 1.500000e+00 0.271 faster 0 5.121174e+05 5.121210e+05 3.585
4 regular 5 23 423 54 1.500000e+00 0.290 slower 1 5.121219e+05 5.121243e+05 2.445
4 regular 5 24 424 55 1.500000e+00 0.219 faster 0 5.121261e+05 5.121283e+05 2.245
4 regular 5 25 425 66 1.500000e+00 0.126 faster 1 5.121291e+05 5.121312e+05 2.069
4 regular 5 26 426 54 1.500000e+00 0.304 slower 1 5.121331e+05 5.121352e+05 2.100
4 regular 5 27 427 65 1.500000e+00 0.289 slower 0 5.121369e+05 5.121392e+05 2.299
4 regular 5 28 428 66 1.500000e+00 0.268 slower 0 5.121405e+05 5.121429e+05 2.427
4 regular 5 29 429 53 1.500000e+00 0.448 slower 1 5.121454e+05 5.121476e+05 2.176
4 regular 5 30 430 67 1.500000e+00 0.230 faster 1 5.121496e+05 5.121524e+05 2.784
4 regular 5 31 431 66 1.500000e+00 0.550 slower 0 5.121557e+05 5.121590e+05 3.340
4 regular 5 32 432 67 1.500000e+00 0.219 slower 0 5.121600e+05 5.121627e+05 2.634
4 regular 5 33 433 52 1.500000e+00 0.225 faster 0 5.121635e+05 5.121666e+05 3.056
4 regular 5 34 434 69 1.500000e+00 0.324 faster 1 5.121676e+05 5.121707e+05 3.107
4 regular 5 35 435 69 1.500000e+00 0.454 faster 1 5.121718e+05 5.121742e+05 2.463
4 regular 5 36 436 52 1.500000e+00 0.490 slower 1 5.121753e+05 5.121775e+05 2.158
4 regular 5 37 437 52 1.500000e+00 0.562 slower 1 5.121787e+05 5.121815e+05 2.748
4 regular 5 38 438 53 1.500000e+00 0.579 slower 1 5.121827e+05 5.121848e+05 2.181
4 regular 5 39 439 67 1.500000e+00 0.573 faster 1 5.121861e+05 5.121888e+05 2.788
4 regular 5 40 440 66 1.500000e+00 0.155 faster 1 5.121896e+05 5.121919e+05 2.242
4 regular 5 41 441 54 1.500000e+00 0.542 slower 1 5.121931e+05 5.121952e+05 2.156
4 regular 5 42 442 65 1.500000e+00 0.413 slower 0 5.121963e+05 5.121988e+05 2.538
4 regular 5 43 443 66 1.500000e+00 0.499 slower 0 5.122013e+05 5.122040e+05 2.722
4 regular 5 44 444 53 1.500000e+00 0.599 slower 1 5.122058e+05 5.122085e+05 2.675
4 regular 5 45 445 53 1.500000e+00 0.175 slower 1 5.122100e+05 5.122122e+05 2.226
4 regular 5 46 446 54 1.500000e+00 0.408 slower 1 5.122135e+05 5.122156e+05 2.091
4 regular 5 47 447 66 1.500000e+00 0.348 slower 0 5.122173e+05 5.122198e+05 2.511
4 regular 5 48 448 53 1.500000e+00 0.361 slower 1 5.122222e+05 5.122245e+05 2.262
4 regular 5 49 449 66 1.500000e+00 0.475 slower 0 5.122260e+05 5.122283e+05 2.302
4 regular 5 50 450 53 1.500000e+00 0.322 slower 1 5.122293e+05 5.122314e+05 2.049
4 regular 5 51 451 53 1.500000e+00 0.346 slower 1 5.122326e+05 5.122347e+05 2.009
4 regular 5 52 452 66 1.500000e+00 0.497 faster 1 5.122366e+05 5.122386e+05 1.970
4 regular 5 53 453 66 1.500000e+00 0.170 faster 1 5.122400e+05 5.122421e+05 2.166
4 regular 5 54 454 55 1.500000e+00 0.521 slower 1 5.122441e+05 5.122462e+05 2.080
4 regular 5 55 455 65 1.500000e+00 0.386 slower 0 5.122478e+05 5.122506e+05 2.713
4 regular 5 56 456 54 1.500000e+00 0.543 slower 1 5.122523e+05 5.122547e+05 2.425
4 regular 5 57 457 55 1.500000e+00 0.230 slower 1 5.122559e+05 5.122583e+05 2.478
4 regular 5 58 458 55 1.500000e+00 0.307 slower 1 5.122617e+05 5.122638e+05 2.131
4 regular 5 59 459 56 1.500000e+00 0.537 slower 1 5.122661e+05 5.122683e+05 2.133
4 regular 5 60 460 56 1.500000e+00 0.282 slower 1 5.122693e+05 5.122713e+05 2.010
4 regular 5 61 461 63 1.500000e+00 0.394 faster 1 5.122729e+05 5.122750e+05 2.162
4 regular 5 62 462 63 1.500000e+00 0.595 faster 1 5.122763e+05 5.122783e+05 1.958
4 regular 5 63 463 58 1.500000e+00 0.150 faster 0 5.122793e+05 5.122818e+05 2.432
4 regular 5 64 464 57 1.500000e+00 0.305 faster 0 5.122827e+05 5.122851e+05 2.441
4 regular 5 65 465 56 1.500000e+00 0.566 slower 1 5.122870e+05 5.122894e+05 2.378
4 regular 5 66 466 56 1.500000e+00 0.481 slower 1 5.122921e+05 5.122942e+05 2.159
4 regular 5 67 467 63 1.500000e+00 0.475 faster 1 5.122962e+05 5.122985e+05 2.336
4 regular 5 68 468 57 1.500000e+00 0.328 slower 1 5.123004e+05 5.123033e+05 2.868
4 regular 5 69 469 58 1.500000e+00 0.486 slower 1 5.123049e+05 5.123073e+05 2.417
4 regular 5 70 470 62 1.500000e+00 0.205 slower 0 5.123088e+05 5.123112e+05 2.350
4 regular 5 71 471 57 1.500000e+00 0.222 faster 0 5.123136e+05 5.123157e+05 2.065
4 regular 5 72 472 56 1.500000e+00 0.594 slower 1 5.123178e+05 5.123201e+05 2.240
4 regular 5 73 473 63 1.500000e+00 0.479 faster 1 5.123220e+05 5.123245e+05 2.534
4 regular 5 74 474 63 1.500000e+00 0.588 faster 1 5.123264e+05 5.123286e+05 2.214
4 regular 5 75 475 62 1.500000e+00 0.180 faster 1 5.123294e+05 5.123315e+05 2.058
4 regular 5 76 476 58 1.500000e+00 0.280 faster 0 5.123330e+05 5.123352e+05 2.208
4 regular 5 77 477 63 1.500000e+00 0.533 faster 1 5.123364e+05 5.123385e+05 2.035
4 regular 5 78 478 62 1.500000e+00 0.563 faster 1 5.123401e+05 5.123423e+05 2.156
4 regular 5 79 479 62 1.500000e+00 0.394 slower 0 5.123435e+05 5.123456e+05 2.137
4 regular 5 80 480 57 1.500000e+00 0.382 slower 1 5.123472e+05 5.123493e+05 2.112
4 regular 5 81 481 62 1.500000e+00 0.154 slower 0 5.123512e+05 5.123535e+05 2.273
4 regular 5 82 482 63 1.500000e+00 0.362 faster 1 5.123549e+05 5.123580e+05 3.057
4 regular 5 83 483 63 1.500000e+00 0.311 faster 1 5.123589e+05 5.123610e+05 2.013
4 regular 5 84 484 58 1.500000e+00 0.171 slower 1 5.123619e+05 5.123645e+05 2.590
4 regular 5 85 485 62 1.500000e+00 0.320 faster 1 5.123655e+05 5.123678e+05 2.322
4 regular 5 86 486 59 1.500000e+00 0.293 faster 0 5.123691e+05 5.123715e+05 2.432
4 regular 5 87 487 58 1.500000e+00 0.140 slower 1 5.123723e+05 5.123744e+05 2.158
4 regular 5 88 488 58 1.500000e+00 0.510 slower 1 5.123756e+05 5.123777e+05 2.103
4 regular 5 89 489 59 1.500000e+00 0.452 faster 0 5.123795e+05 5.123819e+05 2.444
4 regular 5 90 490 58 1.500000e+00 0.104 faster 0 5.123826e+05 5.123849e+05 2.237
4 regular 5 91 491 63 1.500000e+00 0.137 faster 1 5.123865e+05 5.123888e+05 2.304
4 regular 5 92 492 63 1.500000e+00 0.289 slower 0 5.123905e+05 5.123933e+05 2.785
4 regular 5 93 493 64 1.500000e+00 0.473 faster 1 5.123944e+05 5.123967e+05 2.228
4 regular 5 94 494 63 1.500000e+00 0.221 faster 1 5.123983e+05 5.124007e+05 2.342
4 regular 5 95 495 63 1.500000e+00 0.337 slower 0 5.124021e+05 5.124043e+05 2.205
4 regular 5 96 496 64 1.500000e+00 0.121 faster 1 5.124054e+05 5.124073e+05 1.968
4 regular 5 97 497 57 1.500000e+00 0.576 slower 1 5.124086e+05 5.124108e+05 2.243
4 regular 5 98 498 57 1.500000e+00 0.510 slower 1 5.124124e+05 5.124146e+05 2.165
4 regular 5 99 499 58 1.500000e+00 0.304 slower 1 5.124167e+05 5.124189e+05 2.183
4 regular 5 100 500 58 1.500000e+00 0.231 slower 1 5.124212e+05 5.124234e+05 2.222
4 irregular 6 1 501 65 1 0.256 slower 0 2.937281e+06 2.937283e+06 1.894
4 irregular 6 2 502 67 2.500000e+00 0.317 faster 1 2.937284e+06 2.937288e+06 3.633
4 irregular 6 3 503 53 2 0.334 faster 0 2.937289e+06 2.937292e+06 3.017
4 irregular 6 4 504 51 2.500000e+00 0.250 slower 1 2.937295e+06 2.937299e+06 3.368
4 irregular 6 5 505 53 3 0.499 slower 1 2.937301e+06 2.937306e+06 5.190
4 irregular 6 6 506 53 1 0.230 slower 1 2.937308e+06 2.937311e+06 2.885
4 irregular 6 7 507 55 1 0.341 slower 1 2.937312e+06 2.937314e+06 2.357
4 irregular 6 8 508 55 3 0.181 slower 1 2.937315e+06 2.937319e+06 3.986
4 irregular 6 9 509 57 2.500000e+00 0.568 faster 0 2.937320e+06 2.937324e+06 3.940
4 irregular 6 10 510 65 3 0.109 faster 1 2.937325e+06 2.937328e+06 3.712
4 irregular 6 11 511 65 1 0.153 slower 0 2.937331e+06 2.937333e+06 2.002
4 irregular 6 12 512 67 1 0.199 slower 0 2.937333e+06 2.937335e+06 1.757
4 irregular 6 13 513 69 3 0.240 faster 1 2.937336e+06 2.937340e+06 3.757
4 irregular 6 14 514 53 2.500000e+00 0.146 faster 0 2.937341e+06 2.937345e+06 3.458
4 irregular 6 15 515 52 2.500000e+00 0.583 faster 0 2.937347e+06 2.937350e+06 3.563
4 irregular 6 16 516 69 2 0.529 faster 1 2.937352e+06 2.937355e+06 2.803
4 irregular 6 17 517 51 3 0.143 slower 1 2.937356e+06 2.937360e+06 3.805
4 irregular 6 18 518 68 1 0.355 faster 1 2.937361e+06 2.937363e+06 2.099
4 irregular 6 19 519 52 1.500000e+00 0.464 slower 1 2.937364e+06 2.937366e+06 2.248
4 irregular 6 20 520 53 3 0.147 slower 1 2.937367e+06 2.937371e+06 3.920
4 irregular 6 21 521 67 3 0.580 faster 1 2.937374e+06 2.937377e+06 3.649
4 irregular 6 22 522 66 3 0.475 faster 1 2.937378e+06 2.937382e+06 3.635
4 irregular 6 23 523 66 2.500000e+00 0.504 faster 1 2.937383e+06 2.937386e+06 3.253
4 irregular 6 24 524 55 2.500000e+00 0.275 faster 0 2.937387e+06 2.937391e+06 3.781
4 irregular 6 25 525 66 3 0.323 faster 1 2.937392e+06 2.937396e+06 4.251
4 irregular 6 26 526 66 2 0.271 faster 1 2.937400e+06 2.937403e+06 3.152
4 irregular 6 27 527 65 1 0.426 faster 1 2.937404e+06 2.937407e+06 2.959
4 irregular 6 28 528 55 1 0.522 faster 0 2.937419e+06 2.937421e+06 1.646
4 irregular 6 29 529 54 2 0.377 slower 1 2.937422e+06 2.937425e+06 2.717
4 irregular 6 30 530 65 2 0.274 faster 1 2.937425e+06 2.937428e+06 2.635
4 irregular 6 31 531 65 2.500000e+00 0.251 faster 1 2.937429e+06 2.937432e+06 3.256
4 irregular 6 32 532 56 2.500000e+00 0.400 slower 1 2.937433e+06 2.937437e+06 3.230
4 irregular 6 33 533 64 3 0.339 faster 1 2.937438e+06 2.937441e+06 3.582
4 irregular 6 34 534 63 1.500000e+00 0.511 faster 1 2.937442e+06 2.937445e+06 2.293
4 irregular 6 35 535 57 1.500000e+00 0.581 faster 0 2.937446e+06 2.937448e+06 2.478
4 irregular 6 36 536 64 2.500000e+00 0.524 faster 1 2.937450e+06 2.937453e+06 3.148
4 irregular 6 37 537 63 3 0.168 faster 1 2.937454e+06 2.937457e+06 3.619
4 irregular 6 38 538 57 1 0.146 slower 1 2.937458e+06 2.937460e+06 1.887
4 irregular 6 39 539 58 1.500000e+00 0.434 faster 0 2.937462e+06 2.937464e+06 2.107
4 irregular 6 40 540 57 1.500000e+00 0.267 faster 0 2.937466e+06 2.937468e+06 2.036
4 irregular 6 41 541 64 2 0.217 faster 1 2.937470e+06 2.937472e+06 2.466
4 irregular 6 42 542 56 2 0.198 faster 0 2.937473e+06 2.937476e+06 2.589
4 irregular 6 43 543 55 2.500000e+00 0.575 faster 0 2.937477e+06 2.937480e+06 3.424
4 irregular 6 44 544 66 2 0.207 slower 0 2.937482e+06 2.937485e+06 2.738
4 irregular 6 45 545 67 2.500000e+00 0.106 slower 0 2.937487e+06 2.937490e+06 3.219
4 irregular 6 46 546 52 1.500000e+00 0.146 slower 1 2.937491e+06 2.937494e+06 2.264
4 irregular 6 47 547 67 1.500000e+00 0.584 faster 1 2.937495e+06 2.937497e+06 2.629
4 irregular 6 48 548 67 2 0.316 slower 0 2.937499e+06 2.937502e+06 2.671
4 irregular 6 49 549 68 3 0.391 faster 1 2.937503e+06 2.937506e+06 3.612
4 irregular 6 50 550 53 1 0.119 none 2 2.937507e+06 2.937511e+06 3.999
4 irregular 6 51 551 53 2 0.596 faster 0 2.937512e+06 2.937515e+06 2.786
4 irregular 6 52 552 68 1 0.441 faster 1 2.937516e+06 2.937518e+06 1.734
4 irregular 6 53 553 68 2.500000e+00 0.161 faster 1 2.937520e+06 2.937523e+06 3.089
4 irregular 6 54 554 53 2.500000e+00 0.515 faster 0 2.937524e+06 2.937527e+06 3.444
4 irregular 6 55 555 52 1 0.300 slower 1 2.937528e+06 2.937531e+06 2.325
4 irregular 6 56 556 52 3 0.595 slower 1 2.937532e+06 2.937536e+06 3.707
4 irregular 6 57 557 53 3 0.566 slower 1 2.937537e+06 2.937541e+06 4.015
4 irregular 6 58 558 53 1.500000e+00 0.344 slower 1 2.937542e+06 2.937545e+06 2.320
4 irregular 6 59 559 54 1 0.585 faster 0 2.937546e+06 2.937548e+06 2.451
4 irregular 6 60 560 67 3 0.267 faster 1 2.937550e+06 2.937554e+06 3.810
4 irregular 6 61 561 53 2.500000e+00 0.241 slower 1 2.937555e+06 2.937558e+06 3.248
4 irregular 6 62 562 54 3 0.505 faster 0 2.937559e+06 2.937563e+06 4.212
4 irregular 6 63 563 53 2 0.219 slower 1 2.937564e+06 2.937567e+06 3.000
4 irregular 6 64 564 67 1.500000e+00 0.297 faster 1 2.937570e+06 2.937572e+06 2.234
4 irregular 6 65 565 66 1 0.139 faster 1 2.937581e+06 2.937583e+06 1.605
4 irregular 6 66 566 54 2 0.186 faster 0 2.937584e+06 2.937587e+06 2.518
4 irregular 6 67 567 67 2.500000e+00 0.118 faster 1 2.937588e+06 2.937591e+06 3.061
4 irregular 6 68 568 54 1.500000e+00 0.326 faster 0 2.937592e+06 2.937594e+06 2.143
4 irregular 6 69 569 53 2 0.336 faster 0 2.937595e+06 2.937598e+06 2.537
4 irregular 6 70 570 68 1.500000e+00 0.124 faster 1 2.937598e+06 2.937600e+06 1.971
4 irregular 6 71 571 52 3 0.161 faster 0 2.937601e+06 2.937606e+06 4.148
4 irregular 6 72 572 69 1.500000e+00 0.287 faster 1 2.937608e+06 2.937611e+06 2.508
4 irregular 6 73 573 52 3 0.584 slower 1 2.937613e+06 2.937616e+06 3.878
4 irregular 6 74 574 68 2.500000e+00 0.401 faster 1 2.937618e+06 2.937621e+06 3.171
4 irregular 6 75 575 67 1.500000e+00 0.484 faster 1 2.937622e+06 2.937624e+06 2.150
4 irregular 6 76 576 67 3 0.161 faster 1 2.937625e+06 2.937629e+06 3.915
4 irregular 6 77 577 66 1.500000e+00 0.131 faster 1 2.937630e+06 2.937632e+06 2.304
4 irregular 6 78 578 54 1 0.580 slower 1 2.937633e+06 2.937635e+06 1.850
4 irregular 6 79 579 55 1.500000e+00 0.381 faster 0 2.937636e+06 2.937638e+06 2.307
4 irregular 6 80 580 54 1.500000e+00 0.311 faster 0 2.937640e+06 2.937642e+06 2.316
4 irregular 6 81 581 67 1.500000e+00 0.146 slower 0 2.937643e+06 2.937646e+06 2.743
4 irregular 6 82 582 68 1.500000e+00 0.525 slower 0 2.937647e+06 2.937650e+06 2.818
4 irregular 6 83 583 69 2 0.239 slower 0 2.937650e+06 2.937653e+06 3.032
4 irregular 6 84 584 50 2 0.576 none 2 2.937655e+06 2.937660e+06 5.000
4 irregular 6 85 585 50 2 0.117 slower 1 2.937660e+06 2.937663e+06 2.801
4 irregular 6 86 586 70 1 0.533 slower 0 2.937664e+06 2.937666e+06 1.810
4 irregular 6 87 587 49 1 0.517 faster 0 2.937667e+06 2.937669e+06 1.883
4 irregular 6 88 588 48 2 0.263 slower 1 2.937670e+06 2.937673e+06 2.789
4 irregular 6 89 589 49 2.500000e+00 0.209 faster 0 2.937674e+06 2.937678e+06 4.193
4 irregular 6 90 590 72 2 0.526 faster 1 2.937679e+06 2.937682e+06 2.720
4 irregular 6 91 591 72 1 0.318 faster 1 2.937683e+06 2.937685e+06 1.788
4 irregular 6 92 592 71 2 0.217 faster 1 2.937686e+06 2.937689e+06 2.579
4 irregular 6 93 593 49 3 0.389 faster 0 2.937690e+06 2.937694e+06 3.655
4 irregular 6 94 594 72 2.500000e+00 0.292 faster 1 2.937697e+06 2.937700e+06 3.136
4 irregular 6 95 595 71 2.500000e+00 0.600 faster 1 2.937701e+06 2.937704e+06 3.297
4 irregular 6 96 596 71 1 0.227 slower 0 2.937706e+06 2.937708e+06 1.900
4 irregular 6 97 597 72 1.500000e+00 0.439 faster 1 2.937709e+06 2.937712e+06 3.008
4 irregular 6 98 598 49 1.500000e+00 0.358 slower 1 2.937714e+06 2.937717e+06 3.357
4 irregular 6 99 599 49 1 0.573 slower 1 2.937719e+06 2.937720e+06 1.888
4 irregular 6 100 600 70 2 0.202 faster 1 2.937722e+06 2.937725e+06 2.645
4 regular 7 1 601 70 3 0.450 faster 1 2.937742e+06 2.937746e+06 3.741
4 regular 7 2 602 51 3 0.326 faster 0 2.937747e+06 2.937751e+06 3.631
4 regular 7 3 603 70 3 0.368 faster 1 2.937752e+06 2.937756e+06 3.592
4 regular 7 4 604 50 3 0.258 faster 0 2.937758e+06 2.937761e+06 3.516
4 regular 7 5 605 71 3 0.204 faster 1 2.937763e+06 2.937767e+06 3.828
4 regular 7 6 606 50 3 0.209 faster 0 2.937768e+06 2.937773e+06 5.392
4 regular 7 7 607 71 3 0.471 faster 1 2.937775e+06 2.937778e+06 3.773
4 regular 7 8 608 71 3 0.150 faster 1 2.937781e+06 2.937786e+06 4.317
4 regular 7 9 609 70 3 0.262 faster 1 2.937787e+06 2.937791e+06 3.855
4 regular 7 10 610 50 3 0.321 faster 0 2.937793e+06 2.937797e+06 4.060
4 regular 7 11 611 49 3 0.271 faster 0 2.937798e+06 2.937802e+06 3.633
4 regular 7 12 612 72 3 0.442 faster 1 2.937804e+06 2.937808e+06 4.014
4 regular 7 13 613 71 3 0.413 faster 1 2.937810e+06 2.937814e+06 3.826
4 regular 7 14 614 49 3 0.474 faster 0 2.937815e+06 2.937819e+06 4.227
4 regular 7 15 615 72 3 0.553 faster 1 2.937822e+06 2.937826e+06 3.624
4 regular 7 16 616 71 3 0.586 faster 1 2.937827e+06 2.937831e+06 3.606
4 regular 7 17 617 49 3 0.373 faster 0 2.937833e+06 2.937837e+06 3.829
4 regular 7 18 618 48 3 0.384 faster 0 2.937840e+06 2.937844e+06 3.623
4 regular 7 19 619 47 3 0.139 faster 0 2.937844e+06 2.937848e+06 3.664
4 regular 7 20 620 46 3 0.373 faster 0 2.937850e+06 2.937854e+06 3.735
4 regular 7 21 621 45 3 0.568 faster 0 2.937857e+06 2.937860e+06 3.692
4 regular 7 22 622 76 3 0.338 faster 1 2.937867e+06 2.937871e+06 3.797
4 regular 7 23 623 75 3 0.245 faster 1 2.937873e+06 2.937876e+06 3.479
4 regular 7 24 624 45 3 0.143 faster 0 2.937878e+06 2.937882e+06 3.818
4 regular 7 25 625 76 3 0.477 faster 1 2.937885e+06 2.937888e+06 3.697
4 regular 7 26 626 75 3 0.268 faster 1 2.937892e+06 2.937896e+06 3.703
4 regular 7 27 627 75 3 0.436 faster 1 2.937898e+06 2.937902e+06 3.579
4 regular 7 28 628 74 3 0.272 faster 1 2.937903e+06 2.937907e+06 3.759
4 regular 7 29 629 46 3 0.172 faster 0 2.937910e+06 2.937914e+06 4.170
4 regular 7 30 630 45 3 0.251 slower 1 2.937917e+06 2.937923e+06 5.262
4 regular 7 31 631 74 3 0.108 faster 1 2.937927e+06 2.937931e+06 3.875
4 regular 7 32 632 46 3 0.335 faster 0 2.937933e+06 2.937937e+06 3.558
4 regular 7 33 633 45 3 0.296 faster 0 2.937938e+06 2.937942e+06 3.650
4 regular 7 34 634 44 3 0.402 faster 0 2.937949e+06 2.937953e+06 3.727
4 regular 7 35 635 77 3 0.363 faster 1 2.937954e+06 2.937957e+06 3.638
4 regular 7 36 636 76 3 0.302 faster 1 2.937960e+06 2.937963e+06 3.520
4 regular 7 37 637 44 3 0.119 slower 1 2.937967e+06 2.937971e+06 3.880
4 regular 7 38 638 45 3 0.156 slower 1 2.937974e+06 2.937977e+06 3.770
4 regular 7 39 639 45 3 0.292 slower 1 2.937979e+06 2.937983e+06 3.773
4 regular 7 40 640 74 3 0.274 faster 1 2.937984e+06 2.937987e+06 3.513
4 regular 7 41 641 74 3 0.496 faster 1 2.937989e+06 2.937993e+06 3.453
4 regular 7 42 642 47 3 0.321 slower 1 2.937994e+06 2.937998e+06 4.038
4 regular 7 43 643 73 3 0.246 faster 1 2.937999e+06 2.938003e+06 3.746
4 regular 7 44 644 48 3 0.512 faster 0 2.938006e+06 2.938010e+06 3.642
4 regular 7 45 645 47 3 0.448 slower 1 2.938020e+06 2.938024e+06 4.016
4 regular 7 46 646 73 3 0.126 faster 1 2.938027e+06 2.938030e+06 3.629
4 regular 7 47 647 48 3 0.533 slower 1 2.938033e+06 2.938037e+06 3.815
4 regular 7 48 648 72 3 0.466 faster 1 2.938038e+06 2.938042e+06 3.633
4 regular 7 49 649 49 3 0.480 faster 0 2.938043e+06 2.938047e+06 3.780
4 regular 7 50 650 48 3 0.369 faster 0 2.938051e+06 2.938055e+06 4.705
4 regular 7 51 651 47 3 0.426 faster 0 2.938063e+06 2.938068e+06 4.172
4 regular 7 52 652 74 3 0.496 faster 1 2.938069e+06 2.938073e+06 3.784
4 regular 7 53 653 74 3 0.562 faster 1 2.938074e+06 2.938078e+06 3.781
4 regular 7 54 654 47 3 0.553 faster 0 2.938079e+06 2.938084e+06 4.765
4 regular 7 55 655 74 3 0.514 faster 1 2.938090e+06 2.938094e+06 4.199
4 regular 7 56 656 46 3 0.589 slower 1 2.938106e+06 2.938110e+06 3.699
4 regular 7 57 657 47 3 0.447 faster 0 2.938113e+06 2.938117e+06 4.120
4 regular 7 58 658 74 3 0.582 faster 1 2.938119e+06 2.938123e+06 3.589
4 regular 7 59 659 74 3 0.459 faster 1 2.938141e+06 2.938145e+06 3.585
4 regular 7 60 660 73 3 0.501 faster 1 2.938147e+06 2.938151e+06 3.807
4 regular 7 61 661 47 3 0.416 slower 1 2.938154e+06 2.938158e+06 3.987
4 regular 7 62 662 72 3 0.273 faster 1 2.938159e+06 2.938163e+06 3.746
4 regular 7 63 663 48 3 0.346 faster 0 2.938164e+06 2.938168e+06 3.748
4 regular 7 64 664 73 3 0.180 faster 1 2.938176e+06 2.938180e+06 3.857
4 regular 7 65 665 48 3 0.329 slower 1 2.938190e+06 2.938194e+06 3.754
4 regular 7 66 666 48 3 0.187 slower 1 2.938195e+06 2.938199e+06 3.684
4 regular 7 67 667 71 3 0.287 faster 1 2.938200e+06 2.938203e+06 3.632
4 regular 7 68 668 49 3 0.293 faster 0 2.938204e+06 2.938208e+06 3.859
4 regular 7 69 669 72 3 0.406 faster 1 2.938210e+06 2.938213e+06 3.518
4 regular 7 70 670 49 3 0.102 slower 1 2.938216e+06 2.938219e+06 3.747
4 regular 7 71 671 49 3 0.382 faster 0 2.938221e+06 2.938226e+06 4.522
4 regular 7 72 672 72 3 0.276 faster 1 2.938227e+06 2.938231e+06 3.680
4 regular 7 73 673 49 3 0.446 faster 0 2.938235e+06 2.938239e+06 3.912
4 regular 7 74 674 72 3 0.235 faster 1 2.938243e+06 2.938247e+06 3.947
4 regular 7 75 675 48 3 0.238 faster 0 2.938249e+06 2.938253e+06 3.665
4 regular 7 76 676 47 3 0.383 faster 0 2.938254e+06 2.938258e+06 3.714
4 regular 7 77 677 46 3 0.521 slower 1 2.938261e+06 2.938267e+06 5.807
4 regular 7 78 678 73 3 0.487 slower 0 2.938275e+06 2.938279e+06 3.966
4 regular 7 79 679 74 3 0.364 faster 1 2.938297e+06 2.938301e+06 3.689
4 regular 7 80 680 46 3 0.498 slower 1 2.938309e+06 2.938315e+06 5.791
4 regular 7 81 681 73 3 0.521 faster 1 2.938316e+06 2.938320e+06 3.919
4 regular 7 82 682 73 3 0.598 slower 0 2.938349e+06 2.938353e+06 3.895
4 regular 7 83 683 74 3 0.368 faster 1 2.938355e+06 2.938359e+06 3.670
4 regular 7 84 684 73 3 0.418 faster 1 2.938377e+06 2.938381e+06 3.921
4 regular 7 85 685 73 3 0.541 faster 1 2.938397e+06 2.938401e+06 3.637
4 regular 7 86 686 72 3 0.118 faster 1 2.938402e+06 2.938406e+06 3.642
4 regular 7 87 687 48 3 0.438 faster 0 2.938409e+06 2.938413e+06 4.034
4 regular 7 88 688 73 3 0.129 faster 1 2.938415e+06 2.938421e+06 5.442
4 regular 7 89 689 48 3 0.143 faster 0 2.938422e+06 2.938426e+06 3.984
4 regular 7 90 690 73 3 0.177 faster 1 2.938436e+06 2.938440e+06 3.778
4 regular 7 91 691 73 3 0.495 slower 0 2.938442e+06 2.938447e+06 4.409
4 regular 7 92 692 46 3 0.575 slower 1 2.938448e+06 2.938453e+06 4.891
4 regular 7 93 693 47 3 0.349 faster 0 2.938457e+06 2.938461e+06 4.206
4 regular 7 94 694 74 3 0.230 faster 1 2.938464e+06 2.938468e+06 3.624
4 regular 7 95 695 46 3 0.596 slower 1 2.938480e+06 2.938485e+06 5.437
4 regular 7 96 696 47 3 0.102 faster 0 2.938495e+06 2.938499e+06 4.102
4 regular 7 97 697 46 3 0.340 slower 1 2.938502e+06 2.938508e+06 5.826
4 regular 7 98 698 46 3 0.436 faster 0 2.938523e+06 2.938527e+06 4.101
4 regular 7 99 699 75 3 0.296 faster 1 2.938534e+06 2.938538e+06 4.711
4 regular 7 100 700 74 3 0.210 faster 1 2.938542e+06 2.938546e+06 3.686
4 irregular 8 1 701 46 3 0.418 slower 1 2.938845e+06 2.938850e+06 4.111
4 irregular 8 2 702 47 1 0.430 slower 1 2.938851e+06 2.938853e+06 1.915
4 irregular 8 3 703 73 2 0.408 faster 1 2.938854e+06 2.938857e+06 3.225
4 irregular 8 4 704 72 2.500000e+00 0.132 faster 1 2.938858e+06 2.938861e+06 3.765
4 irregular 8 5 705 72 1.500000e+00 0.496 faster 1 2.938869e+06 2.938871e+06 2.225
4 irregular 8 6 706 49 2 0.389 faster 0 2.938873e+06 2.938876e+06 2.846
4 irregular 8 7 707 72 1 0.168 slower 0 2.938876e+06 2.938878e+06 2.055
4 irregular 8 8 708 47 2.500000e+00 0.597 slower 1 2.938880e+06 2.938883e+06 3.609
4 irregular 8 9 709 47 3 0.190 slower 1 2.938885e+06 2.938889e+06 4.100
4 irregular 8 10 710 48 1.500000e+00 0.524 faster 0 2.938890e+06 2.938893e+06 2.772
4 irregular 8 11 711 47 2.500000e+00 0.485 slower 1 2.938895e+06 2.938899e+06 3.710
4 irregular 8 12 712 47 2 0.248 slower 1 2.938900e+06 2.938903e+06 2.853
4 irregular 8 13 713 72 2.500000e+00 0.220 faster 1 2.938904e+06 2.938907e+06 3.290
4 irregular 8 14 714 72 1 0.113 faster 1 2.938909e+06 2.938911e+06 1.961
4 irregular 8 15 715 71 2 0.123 faster 1 2.938912e+06 2.938914e+06 2.667
4 irregular 8 16 716 71 3 0.501 faster 1 2.938916e+06 2.938919e+06 3.760
4 irregular 8 17 717 70 3 0.217 slower 0 2.938920e+06 2.938924e+06 4.176
4 irregular 8 18 718 49 1 0.238 slower 1 2.938926e+06 2.938929e+06 2.178
4 irregular 8 19 719 71 1.500000e+00 0.378 faster 1 2.938930e+06 2.938933e+06 2.864
4 irregular 8 20 720 50 3 0.130 faster 0 2.938934e+06 2.938938e+06 3.880
4 irregular 8 21 721 71 3 0.196 faster 1 2.938939e+06 2.938943e+06 4.298
4 irregular 8 22 722 49 1 0.519 faster 0 2.938944e+06 2.938946e+06 1.880
4 irregular 8 23 723 72 2 0.346 faster 1 2.938947e+06 2.938950e+06 2.736
4 irregular 8 24 724 49 2 0.579 slower 1 2.938951e+06 2.938954e+06 2.993
4 irregular 8 25 725 71 3 0.111 slower 0 2.938956e+06 2.938960e+06 3.904
4 irregular 8 26 726 72 1 0.584 faster 1 2.938963e+06 2.938964e+06 1.766
4 irregular 8 27 727 71 1 0.379 faster 1 2.938967e+06 2.938968e+06 1.805
4 irregular 8 28 728 49 1.500000e+00 0.123 faster 0 2.938977e+06 2.938979e+06 2.332
4 irregular 8 29 729 72 2.500000e+00 0.397 faster 1 2.938981e+06 2.938985e+06 3.674
4 irregular 8 30 730 49 1.500000e+00 0.527 slower 1 2.938987e+06 2.938990e+06 2.514
4 irregular 8 31 731 71 2.500000e+00 0.179 faster 1 2.938992e+06 2.938995e+06 3.183
4 irregular 8 32 732 70 3 0.335 faster 1 2.939002e+06 2.939007e+06 4.079
4 irregular 8 33 733 70 1.500000e+00 0.274 faster 1 2.939012e+06 2.939015e+06 2.295
4 irregular 8 34 734 51 1.500000e+00 0.231 faster 0 2.939016e+06 2.939018e+06 2.277
4 irregular 8 35 735 50 2 0.420 faster 0 2.939019e+06 2.939022e+06 2.733
4 irregular 8 36 736 71 2 0.341 faster 1 2.939023e+06 2.939026e+06 2.708
4 irregular 8 37 737 49 2.500000e+00 0.507 faster 0 2.939027e+06 2.939030e+06 3.181
4 irregular 8 38 738 72 2 0.148 faster 1 2.939031e+06 2.939034e+06 2.629
4 irregular 8 39 739 71 2 0.258 faster 1 2.939035e+06 2.939037e+06 2.975
4 irregular 8 40 740 49 2 0.107 faster 0 2.939039e+06 2.939042e+06 2.695
4 irregular 8 41 741 48 3 0.276 faster 0 2.939044e+06 2.939048e+06 3.641
4 irregular 8 42 742 47 1 0.136 faster 0 2.939049e+06 2.939050e+06 1.643
4 irregular 8 43 743 74 1.500000e+00 0.450 faster 1 2.939051e+06 2.939054e+06 2.366
4 irregular 8 44 744 47 2 0.290 faster 0 2.939055e+06 2.939057e+06 2.721
4 irregular 8 45 745 74 1 0.111 faster 1 2.939058e+06 2.939060e+06 1.621
4 irregular 8 46 746 74 1.500000e+00 0.532 faster 1 2.939061e+06 2.939063e+06 2.129
4 irregular 8 47 747 73 2.500000e+00 0.303 faster 1 2.939064e+06 2.939067e+06 3.057
4 irregular 8 48 748 73 3 0.393 faster 1 2.939069e+06 2.939072e+06 3.752
4 irregular 8 49 749 48 2 0.117 faster 0 2.939073e+06 2.939076e+06 2.746
4 irregular 8 50 750 73 1.500000e+00 0.167 faster 1 2.939077e+06 2.939079e+06 2.110
4 irregular 8 51 751 47 1 0.435 faster 0 2.939082e+06 2.939084e+06 2.255
4 irregular 8 52 752 74 2.500000e+00 0.429 faster 1 2.939087e+06 2.939090e+06 3.635
4 irregular 8 53 753 47 2 0.261 slower 1 2.939106e+06 2.939109e+06 2.949
4 irregular 8 54 754 47 3 0.278 slower 1 2.939135e+06 2.939139e+06 4.593
4 irregular 8 55 755 48 2.500000e+00 0.185 faster 0 2.939144e+06 2.939147e+06 3.238
4 irregular 8 56 756 73 3 0.270 faster 1 2.939156e+06 2.939161e+06 4.667
4 irregular 8 57 757 47 1 0.309 faster 0 2.939164e+06 2.939166e+06 1.726
4 irregular 8 58 758 46 2.500000e+00 0.470 faster 0 2.939169e+06 2.939172e+06 3.374
4 irregular 8 59 759 45 2 0.129 faster 0 2.939175e+06 2.939178e+06 2.766
4 irregular 8 60 760 76 1 0.111 faster 1 2.939180e+06 2.939182e+06 1.905
4 irregular 8 61 761 75 1 0.379 slower 0 2.939185e+06 2.939187e+06 1.930
4 irregular 8 62 762 76 1.500000e+00 0.547 faster 1 2.939190e+06 2.939192e+06 2.216
4 irregular 8 63 763 76 1 0.451 faster 1 2.939209e+06 2.939211e+06 1.938
4 irregular 8 64 764 45 1 0.175 none 2 2.939215e+06 2.939219e+06 4.000
4 irregular 8 65 765 45 1.500000e+00 0.497 slower 1 2.939220e+06 2.939222e+06 2.316
4 irregular 8 66 766 75 2 0.141 faster 1 2.939224e+06 2.939227e+06 2.678
4 irregular 8 67 767 74 3 0.429 faster 1 2.939229e+06 2.939232e+06 3.665
4 irregular 8 68 768 46 2.500000e+00 0.147 slower 1 2.939233e+06 2.939237e+06 3.179
4 irregular 8 69 769 47 1.500000e+00 0.364 slower 1 2.939240e+06 2.939242e+06 2.169
4 irregular 8 70 770 47 1 0.241 slower 1 2.939243e+06 2.939245e+06 1.765
4 irregular 8 71 771 48 3 0.190 faster 0 2.939245e+06 2.939249e+06 3.617
4 irregular 8 72 772 47 1.500000e+00 0.575 faster 0 2.939259e+06 2.939261e+06 2.051
4 irregular 8 73 773 74 1 0.113 faster 1 2.939271e+06 2.939273e+06 1.630
4 irregular 8 74 774 46 3 0.204 faster 0 2.939296e+06 2.939300e+06 3.793
4 irregular 8 75 775 75 2 0.286 faster 1 2.939302e+06 2.939305e+06 2.803
4 irregular 8 76 776 74 2.500000e+00 0.210 slower 0 2.939307e+06 2.939311e+06 3.782
4 irregular 8 77 777 75 3 0.495 faster 1 2.939313e+06 2.939317e+06 4.008
4 irregular 8 78 778 45 3 0.228 slower 1 2.939339e+06 2.939343e+06 3.963
4 irregular 8 79 779 46 2.500000e+00 0.512 faster 0 2.939375e+06 2.939379e+06 3.635
4 irregular 8 80 780 75 2.500000e+00 0.260 faster 1 2.939397e+06 2.939401e+06 3.317
4 irregular 8 81 781 75 1 0.393 faster 1 2.939463e+06 2.939465e+06 1.982
4 irregular 8 82 782 46 1.500000e+00 0.547 slower 1 2.939471e+06 2.939473e+06 2.234
4 irregular 8 83 783 46 1 0.504 slower 1 2.939476e+06 2.939478e+06 1.808
4 irregular 8 84 784 73 2.500000e+00 0.389 faster 1 2.939493e+06 2.939497e+06 3.397
4 irregular 8 85 785 47 1.500000e+00 0.500 faster 0 2.939499e+06 2.939502e+06 2.683
4 irregular 8 86 786 74 2 0.463 faster 1 2.939550e+06 2.939553e+06 2.884
4 irregular 8 87 787 47 2.500000e+00 0.581 slower 1 2.939555e+06 2.939558e+06 3.204
4 irregular 8 88 788 73 2 0.593 faster 1 2.939560e+06 2.939563e+06 2.571
4 irregular 8 89 789 48 1.500000e+00 0.318 faster 0 2.939582e+06 2.939585e+06 2.166
4 irregular 8 90 790 47 2.500000e+00 0.233 slower 1 2.939603e+06 2.939607e+06 3.645
4 irregular 8 91 791 73 1.500000e+00 0.324 faster 1 2.939608e+06 2.939611e+06 2.337
4 irregular 8 92 792 72 1.500000e+00 0.545 slower 0 2.939613e+06 2.939616e+06 2.846
4 irregular 8 93 793 73 3 0.228 faster 1 2.939618e+06 2.939622e+06 3.659
4 irregular 8 94 794 47 2 0.211 faster 0 2.939625e+06 2.939628e+06 2.677
4 irregular 8 95 795 46 2.500000e+00 0.279 slower 1 2.939656e+06 2.939660e+06 3.676
4 irregular 8 96 796 47 3 0.142 faster 0 2.939661e+06 2.939665e+06 3.839
4 irregular 8 97 797 46 3 0.528 faster 0 2.939668e+06 2.939672e+06 3.739
4 irregular 8 98 798 75 2.500000e+00 0.413 faster 1 2.939674e+06 2.939677e+06 3.178
4 irregular 8 99 799 75 1.500000e+00 0.517 faster 1 2.939715e+06 2.939718e+06 2.155
4 irregular 8 100 800 46 1 0.404 slower 1 2.939719e+06 2.939722e+06 2.456
4 regular 9 1 801 46 2.500000e+00 0.325 faster 0 2.939796e+06 2.939799e+06 3.213
4 regular 9 2 802 45 2.500000e+00 0.346 faster 0 2.939800e+06 2.939803e+06 3.092
4 regular 9 3 803 76 2.500000e+00 0.397 faster 1 2.939805e+06 2.939808e+06 3.148
4 regular 9 4 804 75 2.500000e+00 0.344 faster 1 2.939810e+06 2.939814e+06 3.885
4 regular 9 5 805 45 2.500000e+00 0.138 faster 0 2.939830e+06 2.939833e+06 3.819
4 regular 9 6 806 76 2.500000e+00 0.449 faster 1 2.939835e+06 2.939838e+06 3.168
4 regular 9 7 807 45 2.500000e+00 0.111 slower 1 2.939839e+06 2.939843e+06 3.625
4 regular 9 8 808 45 2.500000e+00 0.288 faster 0 2.939844e+06 2.939848e+06 3.621
4 regular 9 9 809 76 2.500000e+00 0.325 faster 1 2.939849e+06 2.939852e+06 3.096
4 regular 9 10 810 75 2.500000e+00 0.584 faster 1 2.939854e+06 2.939857e+06 2.992
4 regular 9 11 811 75 2.500000e+00 0.354 faster 1 2.939858e+06 2.939861e+06 2.890
4 regular 9 12 812 74 2.500000e+00 0.192 faster 1 2.939862e+06 2.939865e+06 2.835
4 regular 9 13 813 46 2.500000e+00 0.481 faster 0 2.939866e+06 2.939869e+06 2.840
4 regular 9 14 814 75 2.500000e+00 0.425 faster 1 2.939870e+06 2.939874e+06 3.182
4 regular 9 15 815 74 2.500000e+00 0.204 faster 1 2.939876e+06 2.939879e+06 2.933
4 regular 9 16 816 74 2.500000e+00 0.123 faster 1 2.939880e+06 2.939883e+06 2.846
4 regular 9 17 817 47 2.500000e+00 0.218 faster 0 2.939883e+06 2.939887e+06 3.147
4 regular 9 18 818 46 2.500000e+00 0.545 faster 0 2.939888e+06 2.939892e+06 3.850
4 regular 9 19 819 75 2.500000e+00 0.389 faster 1 2.939893e+06 2.939897e+06 4.252
4 regular 9 20 820 75 2.500000e+00 0.312 faster 1 2.939899e+06 2.939902e+06 3.170
4 regular 9 21 821 46 2.500000e+00 0.493 slower 1 2.939905e+06 2.939908e+06 3.595
4 regular 9 22 822 46 2.500000e+00 0.266 slower 1 2.939911e+06 2.939914e+06 3.151
4 regular 9 23 823 73 2.500000e+00 0.136 faster 1 2.939916e+06 2.939920e+06 3.255
4 regular 9 24 824 73 2.500000e+00 0.582 faster 1 2.939922e+06 2.939925e+06 2.956
4 regular 9 25 825 72 2.500000e+00 0.236 faster 1 2.939934e+06 2.939937e+06 2.924
4 regular 9 26 826 72 2.500000e+00 0.364 faster 1 2.939942e+06 2.939946e+06 3.035
4 regular 9 27 827 49 2.500000e+00 0.142 faster 0 2.939947e+06 2.939950e+06 2.953
4 regular 9 28 828 72 2.500000e+00 0.288 faster 1 2.939958e+06 2.939962e+06 3.745
4 regular 9 29 829 72 2.500000e+00 0.239 faster 1 2.939963e+06 2.939966e+06 3.024
4 regular 9 30 830 71 2.500000e+00 0.244 faster 1 2.939978e+06 2.939981e+06 3.069
4 regular 9 31 831 71 2.500000e+00 0.251 faster 1 2.939983e+06 2.939986e+06 2.857
4 regular 9 32 832 70 2.500000e+00 0.105 faster 1 2.939987e+06 2.939990e+06 3.417
4 regular 9 33 833 50 2.500000e+00 0.396 faster 0 2.939991e+06 2.939994e+06 2.937
4 regular 9 34 834 49 2.500000e+00 0.486 faster 0 2.939996e+06 2.939999e+06 3.108
4 regular 9 35 835 48 2.500000e+00 0.290 faster 0 2.940000e+06 2.940003e+06 2.983
4 regular 9 36 836 73 2.500000e+00 0.201 faster 1 2.940003e+06 2.940006e+06 2.990
4 regular 9 37 837 72 2.500000e+00 0.327 faster 1 2.940009e+06 2.940013e+06 3.233
4 regular 9 38 838 48 2.500000e+00 0.314 faster 0 2.940017e+06 2.940021e+06 3.293
4 regular 9 39 839 73 2.500000e+00 0.367 faster 1 2.940049e+06 2.940052e+06 3.236
4 regular 9 40 840 48 2.500000e+00 0.314 faster 0 2.940053e+06 2.940056e+06 3.018
4 regular 9 41 841 73 2.500000e+00 0.113 faster 1 2.940058e+06 2.940061e+06 3.310
4 regular 9 42 842 73 2.500000e+00 0.155 faster 1 2.940063e+06 2.940066e+06 3.042
4 regular 9 43 843 48 2.500000e+00 0.226 faster 0 2.940067e+06 2.940070e+06 2.989
4 regular 9 44 844 73 2.500000e+00 0.113 faster 1 2.940071e+06 2.940074e+06 2.961
4 regular 9 45 845 73 2.500000e+00 0.150 faster 1 2.940076e+06 2.940079e+06 3.310
4 regular 9 46 846 48 2.500000e+00 0.257 faster 0 2.940081e+06 2.940085e+06 3.904
4 regular 9 47 847 73 2.500000e+00 0.580 faster 1 2.940087e+06 2.940089e+06 2.966
4 regular 9 48 848 73 2.500000e+00 0.368 faster 1 2.940092e+06 2.940094e+06 2.880
4 regular 9 49 849 72 2.500000e+00 0.401 faster 1 2.940097e+06 2.940099e+06 2.934
4 regular 9 50 850 48 2.500000e+00 0.425 faster 0 2.940103e+06 2.940106e+06 3.078
4 regular 9 51 851 73 2.500000e+00 0.340 faster 1 2.940107e+06 2.940110e+06 3.066
4 regular 9 52 852 48 2.500000e+00 0.532 faster 0 2.940114e+06 2.940117e+06 3.054
4 regular 9 53 853 73 2.500000e+00 0.420 faster 1 2.940118e+06 2.940121e+06 3.252
4 regular 9 54 854 47 2.500000e+00 0.599 faster 0 2.940123e+06 2.940126e+06 3.007
4 regular 9 55 855 46 2.500000e+00 0.499 faster 0 2.940127e+06 2.940131e+06 3.554
4 regular 9 56 856 75 2.500000e+00 0.595 faster 1 2.940132e+06 2.940136e+06 3.149
4 regular 9 57 857 74 2.500000e+00 0.234 faster 1 2.940136e+06 2.940139e+06 3.012
4 regular 9 58 858 46 2.500000e+00 0.166 faster 0 2.940140e+06 2.940143e+06 3.133
4 regular 9 59 859 45 2.500000e+00 0.460 faster 0 2.940145e+06 2.940148e+06 3.116
4 regular 9 60 860 76 2.500000e+00 0.253 faster 1 2.940149e+06 2.940152e+06 3.140
4 regular 9 61 861 75 2.500000e+00 0.387 faster 1 2.940153e+06 2.940156e+06 3.182
4 regular 9 62 862 45 2.500000e+00 0.182 slower 1 2.940157e+06 2.940160e+06 3.300
4 regular 9 63 863 46 2.500000e+00 0.226 slower 1 2.940161e+06 2.940164e+06 3.105
4 regular 9 64 864 74 2.500000e+00 0.266 faster 1 2.940171e+06 2.940175e+06 3.139
4 regular 9 65 865 47 2.500000e+00 0.338 faster 0 2.940176e+06 2.940179e+06 2.967
4 regular 9 66 866 46 2.500000e+00 0.430 faster 0 2.940181e+06 2.940184e+06 3.066
4 regular 9 67 867 45 2.500000e+00 0.308 faster 0 2.940186e+06 2.940189e+06 3.120
4 regular 9 68 868 76 2.500000e+00 0.271 faster 1 2.940191e+06 2.940195e+06 3.221
4 regular 9 69 869 44 2.500000e+00 0.226 slower 1 2.940196e+06 2.940200e+06 3.975
4 regular 9 70 870 45 2.500000e+00 0.102 slower 1 2.940201e+06 2.940205e+06 3.573
4 regular 9 71 871 45 2.500000e+00 0.275 slower 1 2.940207e+06 2.940210e+06 3.081
4 regular 9 72 872 46 2.500000e+00 0.389 slower 1 2.940211e+06 2.940214e+06 2.973
4 regular 9 73 873 46 2.500000e+00 0.434 slower 1 2.940216e+06 2.940219e+06 2.963
4 regular 9 74 874 47 2.500000e+00 0.588 faster 0 2.940222e+06 2.940225e+06 3.137
4 regular 9 75 875 74 2.500000e+00 0.265 faster 1 2.940227e+06 2.940230e+06 2.938
4 regular 9 76 876 46 2.500000e+00 0.571 faster 0 2.940232e+06 2.940235e+06 3.232
4 regular 9 77 877 45 2.500000e+00 0.141 slower 1 2.940236e+06 2.940239e+06 3.813
4 regular 9 78 878 46 2.500000e+00 0.396 faster 0 2.940245e+06 2.940248e+06 3.180
4 regular 9 79 879 45 2.500000e+00 0.214 faster 0 2.940249e+06 2.940252e+06 2.991
4 regular 9 80 880 76 2.500000e+00 0.585 faster 1 2.940253e+06 2.940256e+06 3.010
4 regular 9 81 881 44 2.500000e+00 0.396 slower 1 2.940262e+06 2.940265e+06 3.330
4 regular 9 82 882 75 2.500000e+00 0.358 faster 1 2.940268e+06 2.940271e+06 3.116
4 regular 9 83 883 45 2.500000e+00 0.591 faster 0 2.940273e+06 2.940277e+06 3.212
4 regular 9 84 884 44 2.500000e+00 0.248 faster 0 2.940292e+06 2.940296e+06 3.069
4 regular 9 85 885 77 2.500000e+00 0.216 faster 1 2.940300e+06 2.940303e+06 3.057
4 regular 9 86 886 76 2.500000e+00 0.247 faster 1 2.940307e+06 2.940310e+06 2.984
4 regular 9 87 887 44 2.500000e+00 0.156 slower 1 2.940322e+06 2.940325e+06 3.209
4 regular 9 88 888 45 2.500000e+00 0.366 faster 0 2.940327e+06 2.940331e+06 3.384
4 regular 9 89 889 76 2.500000e+00 0.165 faster 1 2.940332e+06 2.940335e+06 2.966
4 regular 9 90 890 76 2.500000e+00 0.596 faster 1 2.940336e+06 2.940339e+06 2.865
4 regular 9 91 891 45 2.500000e+00 0.428 faster 0 2.940340e+06 2.940344e+06 3.142
4 regular 9 92 892 76 2.500000e+00 0.538 faster 1 2.940349e+06 2.940352e+06 2.835
4 regular 9 93 893 44 2.500000e+00 0.195 faster 0 2.940356e+06 2.940359e+06 2.791
4 regular 9 94 894 43 2.500000e+00 0.401 slower 1 2.940360e+06 2.940364e+06 3.438
4 regular 9 95 895 76 2.500000e+00 0.106 faster 1 2.940365e+06 2.940368e+06 3.140
4 regular 9 96 896 76 2.500000e+00 0.518 faster 1 2.940369e+06 2.940372e+06 3.115
4 regular 9 97 897 75 2.500000e+00 0.498 faster 1 2.940373e+06 2.940376e+06 3.221
4 regular 9 98 898 45 2.500000e+00 0.123 faster 0 2.940377e+06 2.940380e+06 3.168
4 regular 9 99 899 44 2.500000e+00 0.414 slower 1 2.940381e+06 2.940385e+06 3.633
4 regular 9 100 900 45 2.500000e+00 0.400 faster 0 2.940387e+06 2.940391e+06 3.636
4 irregular 10 1 901 76 3 0.466 faster 1 2.941032e+06 2.941036e+06 3.538
4 irregular 10 2 902 76 1.500000e+00 0.123 faster 1 2.941037e+06 2.941039e+06 2.030
4 irregular 10 3 903 75 2.500000e+00 0.400 faster 1 2.941040e+06 2.941043e+06 2.971
4 irregular 10 4 904 45 1 0.503 slower 1 2.941045e+06 2.941047e+06 1.679
4 irregular 10 5 905 46 1.500000e+00 0.192 faster 0 2.941047e+06 2.941050e+06 2.033
4 irregular 10 6 906 45 2.500000e+00 0.267 slower 1 2.941050e+06 2.941054e+06 3.109
4 irregular 10 7 907 75 3 0.579 faster 1 2.941055e+06 2.941059e+06 3.572
4 irregular 10 8 908 74 1.500000e+00 0.306 faster 1 2.941061e+06 2.941063e+06 1.993
4 irregular 10 9 909 46 2.500000e+00 0.565 slower 1 2.941064e+06 2.941068e+06 3.315
4 irregular 10 10 910 73 3 0.375 slower 0 2.941069e+06 2.941073e+06 3.947
4 irregular 10 11 911 46 1 0.210 slower 1 2.941075e+06 2.941076e+06 1.666
4 irregular 10 12 912 74 3 0.182 faster 1 2.941077e+06 2.941081e+06 3.656
4 irregular 10 13 913 47 2.500000e+00 0.182 faster 0 2.941082e+06 2.941085e+06 3.088
4 irregular 10 14 914 46 2 0.576 faster 0 2.941087e+06 2.941089e+06 2.780
4 irregular 10 15 915 45 1.500000e+00 0.426 slower 1 2.941090e+06 2.941093e+06 2.196
4 irregular 10 16 916 75 2.500000e+00 0.410 faster 1 2.941094e+06 2.941097e+06 3.050
4 irregular 10 17 917 46 1 0.443 slower 1 2.941099e+06 2.941100e+06 1.698
4 irregular 10 18 918 74 1.500000e+00 0.124 faster 1 2.941101e+06 2.941103e+06 2.026
4 irregular 10 19 919 47 1 0.246 faster 0 2.941105e+06 2.941106e+06 1.674
4 irregular 10 20 920 74 1 0.254 faster 1 2.941108e+06 2.941109e+06 1.503
4 irregular 10 21 921 74 3 0.218 faster 1 2.941110e+06 2.941113e+06 3.492
4 irregular 10 22 922 73 2 0.169 faster 1 2.941114e+06 2.941117e+06 2.451
4 irregular 10 23 923 73 1.500000e+00 0.298 faster 1 2.941118e+06 2.941120e+06 1.931
4 irregular 10 24 924 48 2 0.451 slower 1 2.941121e+06 2.941123e+06 2.607
4 irregular 10 25 925 48 1 0.332 slower 1 2.941124e+06 2.941126e+06 1.762
4 irregular 10 26 926 49 3 0.528 slower 1 2.941127e+06 2.941131e+06 3.653
4 irregular 10 27 927 49 1.500000e+00 0.202 slower 1 2.941132e+06 2.941134e+06 2.009
4 irregular 10 28 928 50 2 0.500 slower 1 2.941136e+06 2.941139e+06 2.635
4 irregular 10 29 929 70 1.500000e+00 0.118 faster 1 2.941139e+06 2.941142e+06 2.047
4 irregular 10 30 930 51 3 0.481 faster 0 2.941143e+06 2.941147e+06 3.574
4 irregular 10 31 931 50 1 0.233 faster 0 2.941150e+06 2.941151e+06 1.425
4 irregular 10 32 932 49 1 0.156 faster 0 2.941152e+06 2.941154e+06 1.589
4 irregular 10 33 933 72 1.500000e+00 0.377 faster 1 2.941156e+06 2.941158e+06 1.974
4 irregular 10 34 934 72 2.500000e+00 0.534 faster 1 2.941160e+06 2.941163e+06 3.082
4 irregular 10 35 935 71 3 0.384 faster 1 2.941164e+06 2.941168e+06 3.489
4 irregular 10 36 936 71 2 0.402 faster 1 2.941169e+06 2.941172e+06 2.492
4 irregular 10 37 937 70 1.500000e+00 0.109 faster 1 2.941173e+06 2.941175e+06 2.017
4 irregular 10 38 938 70 2 0.135 faster 1 2.941176e+06 2.941178e+06 2.424
4 irregular 10 39 939 51 1.500000e+00 0.178 faster 0 2.941180e+06 2.941182e+06 2.194
4 irregular 10 40 940 70 2 0.226 faster 1 2.941183e+06 2.941186e+06 2.446
4 irregular 10 41 941 50 1 0.395 slower 1 2.941187e+06 2.941189e+06 1.683
4 irregular 10 42 942 69 1 0.563 slower 0 2.941190e+06 2.941193e+06 2.661
4 irregular 10 43 943 70 1.500000e+00 0.592 faster 1 2.941194e+06 2.941197e+06 2.553
4 irregular 10 44 944 70 3 0.558 faster 1 2.941198e+06 2.941202e+06 3.673
4 irregular 10 45 945 51 2 0.312 faster 0 2.941203e+06 2.941205e+06 2.549
4 irregular 10 46 946 70 3 0.324 faster 1 2.941206e+06 2.941210e+06 3.647
4 irregular 10 47 947 50 1 0.532 faster 0 2.941211e+06 2.941213e+06 1.707
4 irregular 10 48 948 71 2.500000e+00 0.191 faster 1 2.941214e+06 2.941217e+06 3.069
4 irregular 10 49 949 70 2.500000e+00 0.376 faster 1 2.941218e+06 2.941222e+06 3.191
4 irregular 10 50 950 70 2.500000e+00 0.363 slower 0 2.941223e+06 2.941226e+06 3.434
4 irregular 10 51 951 71 1.500000e+00 0.543 faster 1 2.941228e+06 2.941230e+06 2.520
4 irregular 10 52 952 50 1.500000e+00 0.539 slower 1 2.941231e+06 2.941234e+06 2.355
4 irregular 10 53 953 70 1 0.225 faster 1 2.941235e+06 2.941236e+06 1.651
4 irregular 10 54 954 51 2.500000e+00 0.130 faster 0 2.941237e+06 2.941240e+06 3.095
4 irregular 10 55 955 70 2 0.316 faster 1 2.941242e+06 2.941244e+06 2.552
4 irregular 10 56 956 70 1 0.322 faster 1 2.941246e+06 2.941247e+06 1.624
4 irregular 10 57 957 69 1 0.253 faster 1 2.941248e+06 2.941250e+06 1.548
4 irregular 10 58 958 51 1.500000e+00 0.415 slower 1 2.941251e+06 2.941253e+06 2.329
4 irregular 10 59 959 68 1 0.232 faster 1 2.941254e+06 2.941256e+06 1.672
4 irregular 10 60 960 52 2 0.507 slower 1 2.941258e+06 2.941260e+06 2.628
4 irregular 10 61 961 53 2 0.294 slower 1 2.941261e+06 2.941264e+06 2.993
4 irregular 10 62 962 53 2.500000e+00 0.320 faster 0 2.941266e+06 2.941269e+06 3.274
4 irregular 10 63 963 68 3 0.305 faster 1 2.941270e+06 2.941274e+06 3.817
4 irregular 10 64 964 53 3 0.470 faster 0 2.941275e+06 2.941279e+06 3.657
4 irregular 10 65 965 52 3 0.280 slower 1 2.941279e+06 2.941283e+06 3.754
4 irregular 10 66 966 68 2.500000e+00 0.260 faster 1 2.941284e+06 2.941287e+06 3.011
4 irregular 10 67 967 53 3 0.434 slower 1 2.941288e+06 2.941292e+06 3.862
4 irregular 10 68 968 67 2.500000e+00 0.570 faster 1 2.941293e+06 2.941297e+06 3.603
4 irregular 10 69 969 54 2.500000e+00 0.476 faster 0 2.941298e+06 2.941302e+06 3.847
4 irregular 10 70 970 67 3 0.321 faster 1 2.941304e+06 2.941307e+06 3.760
4 irregular 10 71 971 67 2 0.320 faster 1 2.941309e+06 2.941312e+06 2.638
4 irregular 10 72 972 54 2 0.522 faster 0 2.941315e+06 2.941317e+06 2.681
4 irregular 10 73 973 67 2 0.116 faster 1 2.941318e+06 2.941321e+06 2.504
4 irregular 10 74 974 53 3 0.492 faster 0 2.941329e+06 2.941332e+06 3.588
4 irregular 10 75 975 52 1.500000e+00 0.385 faster 0 2.941334e+06 2.941336e+06 2.012
4 irregular 10 76 976 69 2 0.112 faster 1 2.941338e+06 2.941340e+06 2.424
4 irregular 10 77 977 52 3 0.591 faster 0 2.941342e+06 2.941346e+06 3.680
4 irregular 10 78 978 51 2 0.443 faster 0 2.941348e+06 2.941351e+06 2.605
4 irregular 10 79 979 70 1 0.211 faster 1 2.941352e+06 2.941354e+06 1.525
4 irregular 10 80 980 50 2 0.375 slower 1 2.941355e+06 2.941358e+06 3.097
4 irregular 10 81 981 69 1 0.580 faster 1 2.941360e+06 2.941362e+06 1.782
4 irregular 10 82 982 69 2.500000e+00 0.237 faster 1 2.941363e+06 2.941366e+06 3.016
4 irregular 10 83 983 52 2.500000e+00 0.478 slower 1 2.941368e+06 2.941373e+06 4.801
4 irregular 10 84 984 52 1.500000e+00 0.562 slower 1 2.941374e+06 2.941376e+06 2.091
4 irregular 10 85 985 53 2 0.512 faster 0 2.941378e+06 2.941381e+06 2.650
4 irregular 10 86 986 52 3 0.120 faster 0 2.941382e+06 2.941386e+06 3.718
4 irregular 10 87 987 69 1 0.134 faster 1 2.941393e+06 2.941395e+06 1.535
4 irregular 10 88 988 51 1 0.145 faster 0 2.941397e+06 2.941398e+06 1.416
4 irregular 10 89 989 70 1 0.532 faster 1 2.941401e+06 2.941403e+06 1.592
4 irregular 10 90 990 51 2.500000e+00 0.582 faster 0 2.941408e+06 2.941411e+06 3.198
4 irregular 10 91 991 50 1.500000e+00 0.265 slower 1 2.941412e+06 2.941415e+06 2.698
4 irregular 10 92 992 70 1.500000e+00 0.178 faster 1 2.941416e+06 2.941419e+06 2.368
4 irregular 10 93 993 69 2.500000e+00 0.406 faster 1 2.941420e+06 2.941423e+06 3.196
4 irregular 10 94 994 51 2.500000e+00 0.435 slower 1 2.941425e+06 2.941428e+06 3.167
4 irregular 10 95 995 52 1.500000e+00 0.536 faster 0 2.941430e+06 2.941433e+06 2.614
4 irregular 10 96 996 69 2 0.365 faster 1 2.941434e+06 2.941437e+06 2.737
4 irregular 10 97 997 51 3 0.147 faster 0 2.941445e+06 2.941448e+06 3.629
4 irregular 10 98 998 70 2 0.297 faster 1 2.941451e+06 2.941453e+06 2.551
4 irregular 10 99 999 51 3 0.319 faster 0 2.941455e+06 2.941459e+06 3.635
4 irregular 10 100 1000 50 2.500000e+00 0.319 faster 0 2.941460e+06 2.941463e+06 3.178
