subNo condition blockNo trialNo trialID currentFrequency cueTargetInterval randomPreCueInterval response responseAccuracy startTime responseTime RT
15 irregular 1 1 1 47 1 0.190 faster 0 3.115302e+06 3.115304e+06 2.046
15 irregular 1 2 2 45 3 0.566 slower 1 3.115305e+06 3.115309e+06 4.084
15 irregular 1 3 3 47 2.500000e+00 0.326 slower 1 3.115310e+06 3.115314e+06 3.343
15 irregular 1 4 4 73 1 0.202 faster 1 3.115318e+06 3.115320e+06 1.744
15 irregular 1 5 5 71 3 0.562 faster 1 3.115321e+06 3.115325e+06 4.300
15 irregular 1 6 6 71 2.500000e+00 0.539 faster 1 3.115327e+06 3.115330e+06 3.876
15 irregular 1 7 7 51 2 0.177 slower 1 3.115331e+06 3.115335e+06 3.338
15 irregular 1 8 8 51 1.500000e+00 0.561 slower 1 3.115336e+06 3.115338e+06 2.292
15 irregular 1 9 9 67 1.500000e+00 0.459 slower 0 3.115340e+06 3.115342e+06 2.570
15 irregular 1 10 10 69 1.500000e+00 0.291 faster 1 3.115344e+06 3.115346e+06 2.722
15 irregular 1 11 11 69 1 0.127 faster 1 3.115347e+06 3.115350e+06 2.488
15 irregular 1 12 12 67 2.500000e+00 0.541 faster 1 3.115351e+06 3.115355e+06 3.818
15 irregular 1 13 13 53 2.500000e+00 0.136 slower 1 3.115356e+06 3.115359e+06 3.397
15 irregular 1 14 14 65 1.500000e+00 0.597 slower 0 3.115361e+06 3.115363e+06 2.634
15 irregular 1 15 15 53 1.500000e+00 0.244 slower 1 3.115364e+06 3.115367e+06 2.478
15 irregular 1 16 16 67 1.500000e+00 0.353 slower 0 3.115368e+06 3.115370e+06 2.460
15 irregular 1 17 17 68 2 0.360 faster 1 3.115371e+06 3.115375e+06 3.725
15 irregular 1 18 18 67 2.500000e+00 0.284 slower 0 3.115376e+06 3.115380e+06 3.773
15 irregular 1 19 19 68 3 0.556 slower 0 3.115381e+06 3.115385e+06 4.134
15 irregular 1 20 20 69 2 0.473 slower 0 3.115386e+06 3.115389e+06 3.089
15 irregular 1 21 21 50 3 0.452 slower 1 3.115390e+06 3.115394e+06 3.761
15 irregular 1 22 22 70 1 0.209 faster 1 3.115395e+06 3.115397e+06 2.228
15 irregular 1 23 23 69 1 0.265 slower 0 3.115398e+06 3.115400e+06 1.820
15 irregular 1 24 24 70 2.500000e+00 0.561 faster 1 3.115402e+06 3.115405e+06 3.403
15 irregular 1 25 25 70 1.500000e+00 0.249 slower 0 3.115406e+06 3.115409e+06 2.396
15 irregular 1 26 26 49 1 0.202 slower 1 3.115409e+06 3.115411e+06 1.979
15 irregular 1 27 27 50 1.500000e+00 0.327 slower 1 3.115412e+06 3.115415e+06 2.641
15 irregular 1 28 28 50 3 0.181 slower 1 3.115416e+06 3.115420e+06 3.960
15 irregular 1 29 29 69 3 0.266 faster 1 3.115421e+06 3.115425e+06 4.272
15 irregular 1 30 30 69 3 0.464 slower 0 3.115427e+06 3.115430e+06 3.918
15 irregular 1 31 31 70 1.500000e+00 0.155 slower 0 3.115431e+06 3.115434e+06 2.522
15 irregular 1 32 32 49 2 0.408 slower 1 3.115435e+06 3.115438e+06 2.849
15 irregular 1 33 33 50 2 0.213 faster 0 3.115439e+06 3.115442e+06 3.715
15 irregular 1 34 34 71 1 0.444 faster 1 3.115443e+06 3.115446e+06 2.787
15 irregular 1 35 35 49 2 0.505 slower 1 3.115447e+06 3.115450e+06 2.837
15 irregular 1 36 36 70 2.500000e+00 0.234 faster 1 3.115451e+06 3.115455e+06 3.842
15 irregular 1 37 37 70 2 0.581 faster 1 3.115456e+06 3.115460e+06 3.573
15 irregular 1 38 38 51 1 0.153 slower 1 3.115461e+06 3.115463e+06 1.889
15 irregular 1 39 39 51 1.500000e+00 0.281 slower 1 3.115464e+06 3.115466e+06 2.269
15 irregular 1 40 40 68 3 0.466 faster 1 3.115468e+06 3.115472e+06 3.943
15 irregular 1 41 41 52 2.500000e+00 0.108 slower 1 3.115473e+06 3.115476e+06 3.443
15 irregular 1 42 42 53 1 0.488 faster 0 3.115478e+06 3.115480e+06 2.255
15 irregular 1 43 43 68 1 0.465 faster 1 3.115481e+06 3.115483e+06 2.235
15 irregular 1 44 44 68 2 0.480 faster 1 3.115485e+06 3.115488e+06 3.102
15 irregular 1 45 45 53 3 0.279 slower 1 3.115489e+06 3.115492e+06 3.887
15 irregular 1 46 46 53 1 0.166 slower 1 3.115493e+06 3.115495e+06 2.159
15 irregular 1 47 47 66 2.500000e+00 0.582 faster 1 3.115497e+06 3.115500e+06 3.693
15 irregular 1 48 48 54 2.500000e+00 0.274 faster 0 3.115501e+06 3.115505e+06 3.419
15 irregular 1 49 49 67 1.500000e+00 0.406 faster 1 3.115506e+06 3.115508e+06 2.562
15 irregular 1 50 50 66 2 0.476 faster 1 3.115510e+06 3.115512e+06 2.846
15 irregular 1 51 51 66 2 0.193 slower 0 3.115513e+06 3.115517e+06 3.120
15 irregular 1 52 52 53 2 0.402 slower 1 3.115518e+06 3.115521e+06 3.115
15 irregular 1 53 53 54 1 0.219 faster 0 3.115522e+06 3.115525e+06 2.936
15 irregular 1 54 54 67 1.500000e+00 0.523 slower 0 3.115526e+06 3.115528e+06 2.782
15 irregular 1 55 55 52 2 0.571 faster 0 3.115530e+06 3.115534e+06 3.526
15 irregular 1 56 56 51 1 0.282 faster 0 3.115535e+06 3.115537e+06 2.473
15 irregular 1 57 57 50 2.500000e+00 0.562 slower 1 3.115538e+06 3.115542e+06 3.639
15 irregular 1 58 58 50 3 0.504 slower 1 3.115543e+06 3.115547e+06 4.207
15 irregular 1 59 59 69 1 0.361 slower 0 3.115548e+06 3.115550e+06 1.998
15 irregular 1 60 60 50 2 0.297 slower 1 3.115552e+06 3.115555e+06 3.012
15 irregular 1 61 61 50 3 0.184 faster 0 3.115555e+06 3.115560e+06 4.328
15 irregular 1 62 62 71 2 0.508 faster 1 3.115561e+06 3.115564e+06 3.066
15 irregular 1 63 63 50 1.500000e+00 0.312 slower 1 3.115565e+06 3.115568e+06 2.788
15 irregular 1 64 64 70 1 0.297 faster 1 3.115571e+06 3.115573e+06 2.177
15 irregular 1 65 65 51 1.500000e+00 0.335 faster 0 3.115574e+06 3.115577e+06 3.059
15 irregular 1 66 66 50 2 0.332 slower 1 3.115579e+06 3.115582e+06 2.987
15 irregular 1 67 67 50 3 0.226 slower 1 3.115583e+06 3.115587e+06 3.812
15 irregular 1 68 68 69 3 0.114 faster 1 3.115589e+06 3.115593e+06 4.262
15 irregular 1 69 69 69 1.500000e+00 0.402 faster 1 3.115594e+06 3.115597e+06 2.904
15 irregular 1 70 70 52 3 0.501 faster 0 3.115599e+06 3.115603e+06 3.980
15 irregular 1 71 71 69 1 0.306 faster 1 3.115604e+06 3.115606e+06 1.886
15 irregular 1 72 72 69 2.500000e+00 0.571 slower 0 3.115608e+06 3.115611e+06 3.662
15 irregular 1 73 73 50 2.500000e+00 0.198 faster 0 3.115612e+06 3.115616e+06 3.399
15 irregular 1 74 74 71 3 0.401 faster 1 3.115617e+06 3.115621e+06 4.081
15 irregular 1 75 75 50 1.500000e+00 0.208 faster 0 3.115622e+06 3.115624e+06 2.457
15 irregular 1 76 76 49 2 0.342 faster 0 3.115626e+06 3.115629e+06 3.569
15 irregular 1 77 77 48 2.500000e+00 0.227 slower 1 3.115630e+06 3.115634e+06 3.563
15 irregular 1 78 78 72 2.500000e+00 0.296 faster 1 3.115635e+06 3.115639e+06 3.456
15 irregular 1 79 79 49 1 0.491 faster 0 3.115640e+06 3.115642e+06 2.390
15 irregular 1 80 80 72 3 0.412 faster 1 3.115643e+06 3.115648e+06 4.433
15 irregular 1 81 81 48 1 0.372 faster 0 3.115649e+06 3.115651e+06 2.128
15 irregular 1 82 82 47 2.500000e+00 0.474 slower 1 3.115652e+06 3.115656e+06 3.445
15 irregular 1 83 83 72 2.500000e+00 0.491 faster 1 3.115657e+06 3.115661e+06 3.829
15 irregular 1 84 84 72 3 0.180 slower 0 3.115663e+06 3.115667e+06 4.175
15 irregular 1 85 85 73 2.500000e+00 0.159 faster 1 3.115669e+06 3.115673e+06 3.745
15 irregular 1 86 86 72 2 0.384 faster 1 3.115675e+06 3.115678e+06 2.973
15 irregular 1 87 87 48 2.500000e+00 0.425 slower 1 3.115679e+06 3.115683e+06 3.858
15 irregular 1 88 88 49 2.500000e+00 0.467 slower 1 3.115684e+06 3.115688e+06 3.729
15 irregular 1 89 89 71 2 0.381 faster 1 3.115690e+06 3.115693e+06 3.653
15 irregular 1 90 90 70 2 0.467 faster 1 3.115695e+06 3.115698e+06 3.176
15 irregular 1 91 91 50 3 0.587 slower 1 3.115700e+06 3.115704e+06 3.852
15 irregular 1 92 92 51 1.500000e+00 0.502 slower 1 3.115706e+06 3.115709e+06 2.705
15 irregular 1 93 93 69 1.500000e+00 0.246 slower 0 3.115710e+06 3.115712e+06 2.827
15 irregular 1 94 94 50 1.500000e+00 0.325 faster 0 3.115716e+06 3.115719e+06 2.979
15 irregular 1 95 95 49 1 0.167 slower 1 3.115724e+06 3.115726e+06 2.279
15 irregular 1 96 96 70 1 0.178 faster 1 3.115732e+06 3.115735e+06 2.769
15 irregular 1 97 97 50 1.500000e+00 0.142 slower 1 3.115737e+06 3.115740e+06 2.856
15 irregular 1 98 98 51 3 0.120 slower 1 3.115746e+06 3.115750e+06 4.391
15 irregular 1 99 99 69 3 0.304 faster 1 3.115752e+06 3.115757e+06 4.303
15 irregular 1 100 100 52 2 0.316 faster 0 3.115759e+06 3.115763e+06 4.006
15 regular 2 1 101 69 1 0.387 faster 1 3.115856e+06 3.115858e+06 1.969
15 regular 2 2 102 51 1 0.585 faster 0 3.115860e+06 3.115862e+06 2.253
15 regular 2 3 103 50 1 0.304 faster 0 3.115863e+06 3.115865e+06 2.413
15 regular 2 4 104 49 1 0.459 faster 0 3.115866e+06 3.115868e+06 1.844
15 regular 2 5 105 48 1 0.489 slower 1 3.115870e+06 3.115872e+06 1.950
15 regular 2 6 106 49 1 0.510 faster 0 3.115873e+06 3.115875e+06 2.314
15 regular 2 7 107 48 1 0.157 faster 0 3.115877e+06 3.115879e+06 2.024
15 regular 2 8 108 47 1 0.222 faster 0 3.115880e+06 3.115882e+06 2.066
15 regular 2 9 109 74 1 0.503 faster 1 3.115883e+06 3.115885e+06 2.087
15 regular 2 10 110 74 1 0.525 faster 1 3.115886e+06 3.115888e+06 1.754
15 regular 2 11 111 47 1 0.206 slower 1 3.115889e+06 3.115891e+06 1.881
15 regular 2 12 112 47 1 0.540 faster 0 3.115893e+06 3.115895e+06 2.188
15 regular 2 13 113 74 1 0.265 faster 1 3.115896e+06 3.115898e+06 2.019
15 regular 2 14 114 47 1 0.155 faster 0 3.115899e+06 3.115902e+06 2.405
15 regular 2 15 115 74 1 0.310 faster 1 3.115903e+06 3.115904e+06 1.760
15 regular 2 16 116 46 1 0.326 slower 1 3.115906e+06 3.115908e+06 1.912
15 regular 2 17 117 73 1 0.561 faster 1 3.115909e+06 3.115911e+06 1.850
15 regular 2 18 118 47 1 0.472 faster 0 3.115914e+06 3.115916e+06 2.067
15 regular 2 19 119 74 1 0.343 faster 1 3.115917e+06 3.115919e+06 1.771
15 regular 2 20 120 73 1 0.457 faster 1 3.115920e+06 3.115922e+06 1.982
15 regular 2 21 121 73 1 0.498 faster 1 3.115924e+06 3.115925e+06 1.869
15 regular 2 22 122 48 1 0.357 faster 0 3.115927e+06 3.115929e+06 2.148
15 regular 2 23 123 73 1 0.223 faster 1 3.115930e+06 3.115932e+06 1.776
15 regular 2 24 124 47 1 0.491 faster 0 3.115933e+06 3.115935e+06 2.068
15 regular 2 25 125 46 1 0.147 slower 1 3.115936e+06 3.115938e+06 1.794
15 regular 2 26 126 47 1 0.331 slower 1 3.115939e+06 3.115941e+06 1.918
15 regular 2 27 127 73 1 0.332 faster 1 3.115943e+06 3.115945e+06 1.883
15 regular 2 28 128 72 1 0.348 faster 1 3.115948e+06 3.115950e+06 1.907
15 regular 2 29 129 72 1 0.298 slower 0 3.115951e+06 3.115953e+06 2.272
15 regular 2 30 130 73 1 0.257 slower 0 3.115956e+06 3.115958e+06 2.317
15 regular 2 31 131 46 1 0.379 slower 1 3.115961e+06 3.115963e+06 2.104
15 regular 2 32 132 47 1 0.490 faster 0 3.115964e+06 3.115967e+06 2.774
15 regular 2 33 133 46 1 0.424 slower 1 3.115968e+06 3.115970e+06 1.932
15 regular 2 34 134 74 1 0.262 faster 1 3.115972e+06 3.115974e+06 2.152
15 regular 2 35 135 47 1 0.209 slower 1 3.115975e+06 3.115977e+06 2.114
15 regular 2 36 136 73 1 0.146 faster 1 3.115978e+06 3.115980e+06 1.750
15 regular 2 37 137 48 1 0.497 slower 1 3.115981e+06 3.115983e+06 2.057
15 regular 2 38 138 48 1 0.535 faster 0 3.115985e+06 3.115987e+06 2.055
15 regular 2 39 139 47 1 0.476 faster 0 3.115988e+06 3.115990e+06 1.883
15 regular 2 40 140 74 1 0.490 faster 1 3.115991e+06 3.115993e+06 1.755
15 regular 2 41 141 73 1 0.415 faster 1 3.115995e+06 3.115997e+06 1.961
15 regular 2 42 142 73 1 0.370 slower 0 3.115998e+06 3.116001e+06 2.140
15 regular 2 43 143 74 1 0.201 none 2 3.116001e+06 3.116005e+06 4.000
15 regular 2 44 144 74 1 0.294 faster 1 3.116006e+06 3.116008e+06 2.086
15 regular 2 45 145 47 1 0.399 faster 0 3.116009e+06 3.116012e+06 2.134
15 regular 2 46 146 74 1 0.298 faster 1 3.116013e+06 3.116015e+06 2.565
15 regular 2 47 147 74 1 0.290 faster 1 3.116016e+06 3.116019e+06 2.953
15 regular 2 48 148 47 1 0.593 slower 1 3.116020e+06 3.116022e+06 1.689
15 regular 2 49 149 73 1 0.572 faster 1 3.116023e+06 3.116025e+06 1.882
15 regular 2 50 150 72 1 0.436 faster 1 3.116026e+06 3.116028e+06 2.249
15 regular 2 51 151 72 1 0.276 slower 0 3.116030e+06 3.116031e+06 1.618
15 regular 2 52 152 47 1 0.223 faster 0 3.116032e+06 3.116035e+06 2.346
15 regular 2 53 153 46 1 0.298 slower 1 3.116036e+06 3.116038e+06 1.942
15 regular 2 54 154 73 1 0.598 faster 1 3.116039e+06 3.116041e+06 2.113
15 regular 2 55 155 47 1 0.581 faster 0 3.116045e+06 3.116047e+06 2.168
15 regular 2 56 156 46 1 0.243 slower 1 3.116048e+06 3.116051e+06 2.852
15 regular 2 57 157 47 1 0.219 slower 1 3.116052e+06 3.116054e+06 2.425
15 regular 2 58 158 73 1 0.340 slower 0 3.116056e+06 3.116058e+06 2.447
15 regular 2 59 159 74 1 0.193 faster 1 3.116060e+06 3.116062e+06 1.819
15 regular 2 60 160 73 1 0.564 faster 1 3.116063e+06 3.116065e+06 1.969
15 regular 2 61 161 73 1 0.167 faster 1 3.116066e+06 3.116068e+06 1.898
15 regular 2 62 162 48 1 0.427 slower 1 3.116069e+06 3.116071e+06 2.047
15 regular 2 63 163 48 1 0.279 slower 1 3.116073e+06 3.116075e+06 1.772
15 regular 2 64 164 71 1 0.221 faster 1 3.116075e+06 3.116077e+06 1.969
15 regular 2 65 165 49 1 0.284 faster 0 3.116079e+06 3.116082e+06 2.539
15 regular 2 66 166 72 1 0.199 slower 0 3.116084e+06 3.116086e+06 2.037
15 regular 2 67 167 47 1 0.171 slower 1 3.116087e+06 3.116089e+06 2.485
15 regular 2 68 168 72 1 0.562 slower 0 3.116092e+06 3.116094e+06 2.898
15 regular 2 69 169 73 1 0.382 faster 1 3.116097e+06 3.116100e+06 2.376
15 regular 2 70 170 47 1 0.335 none 2 3.116103e+06 3.116107e+06 3.999
15 regular 2 71 171 47 1 0.127 faster 0 3.116109e+06 3.116112e+06 2.664
15 regular 2 72 172 46 1 0.265 slower 1 3.116113e+06 3.116115e+06 2.132
15 regular 2 73 173 47 1 0.504 faster 0 3.116117e+06 3.116119e+06 2.233
15 regular 2 74 174 74 1 0.259 faster 1 3.116120e+06 3.116122e+06 1.979
15 regular 2 75 175 74 1 0.363 slower 0 3.116123e+06 3.116125e+06 1.958
15 regular 2 76 176 75 1 0.304 slower 0 3.116127e+06 3.116129e+06 2.396
15 regular 2 77 177 44 1 0.495 slower 1 3.116132e+06 3.116134e+06 2.053
15 regular 2 78 178 45 1 0.249 slower 1 3.116135e+06 3.116137e+06 1.936
15 regular 2 79 179 75 1 0.366 faster 1 3.116138e+06 3.116140e+06 2.015
15 regular 2 80 180 46 1 0.141 slower 1 3.116141e+06 3.116143e+06 1.855
15 regular 2 81 181 46 1 0.212 slower 1 3.116144e+06 3.116146e+06 2.148
15 regular 2 82 182 47 1 0.278 faster 0 3.116150e+06 3.116152e+06 2.135
15 regular 2 83 183 74 1 0.331 none 2 3.116153e+06 3.116157e+06 3.999
15 regular 2 84 184 46 1 0.187 slower 1 3.116159e+06 3.116161e+06 1.871
15 regular 2 85 185 46 1 0.377 slower 1 3.116162e+06 3.116164e+06 1.934
15 regular 2 86 186 47 1 0.466 none 2 3.116167e+06 3.116171e+06 4.000
15 regular 2 87 187 73 1 0.159 slower 0 3.116172e+06 3.116174e+06 2.170
15 regular 2 88 188 74 1 0.439 faster 1 3.116176e+06 3.116178e+06 1.859
15 regular 2 89 189 74 1 0.318 none 2 3.116179e+06 3.116183e+06 4.000
15 regular 2 90 190 74 1 0.144 faster 1 3.116183e+06 3.116185e+06 1.985
15 regular 2 91 191 73 1 0.299 slower 0 3.116187e+06 3.116190e+06 2.887
15 regular 2 92 192 74 1 0.422 slower 0 3.116194e+06 3.116196e+06 1.833
15 regular 2 93 193 75 1 0.587 faster 1 3.116198e+06 3.116201e+06 3.153
15 regular 2 94 194 45 1 0.191 none 2 3.116203e+06 3.116207e+06 3.999
15 regular 2 95 195 45 1 0.256 slower 1 3.116208e+06 3.116210e+06 1.902
15 regular 2 96 196 46 1 0.335 slower 1 3.116214e+06 3.116216e+06 2.030
15 regular 2 97 197 74 1 0.224 slower 0 3.116218e+06 3.116220e+06 2.631
15 regular 2 98 198 75 1 0.158 faster 1 3.116224e+06 3.116226e+06 2.112
15 regular 2 99 199 74 1 0.221 faster 1 3.116227e+06 3.116229e+06 2.312
15 regular 2 100 200 46 1 0.532 slower 1 3.116231e+06 3.116233e+06 2.173
15 irregular 3 1 201 47 2.500000e+00 0.307 slower 1 3.116435e+06 3.116438e+06 3.511
15 irregular 3 2 202 47 2 0.488 slower 1 3.116439e+06 3.116442e+06 2.672
15 irregular 3 3 203 72 2.500000e+00 0.351 faster 1 3.116443e+06 3.116447e+06 3.481
15 irregular 3 4 204 48 2 0.301 faster 0 3.116448e+06 3.116451e+06 3.190
15 irregular 3 5 205 73 1 0.140 faster 1 3.116452e+06 3.116454e+06 2.065
15 irregular 3 6 206 48 1.500000e+00 0.420 faster 0 3.116455e+06 3.116458e+06 2.826
15 irregular 3 7 207 73 2 0.404 faster 1 3.116459e+06 3.116462e+06 3.117
15 irregular 3 8 208 47 1 0.299 slower 1 3.116463e+06 3.116465e+06 1.983
15 irregular 3 9 209 48 3 0.284 slower 1 3.116466e+06 3.116471e+06 4.357
15 irregular 3 10 210 72 1.500000e+00 0.271 faster 1 3.116472e+06 3.116474e+06 2.482
15 irregular 3 11 211 71 3 0.180 faster 1 3.116475e+06 3.116480e+06 4.216
15 irregular 3 12 212 71 2 0.179 faster 1 3.116481e+06 3.116484e+06 3.581
15 irregular 3 13 213 70 3 0.472 faster 1 3.116486e+06 3.116491e+06 4.823
15 irregular 3 14 214 50 2 0.204 slower 1 3.116493e+06 3.116496e+06 3.570
15 irregular 3 15 215 69 3 0.182 faster 1 3.116500e+06 3.116504e+06 4.213
15 irregular 3 16 216 69 2.500000e+00 0.322 none 2 3.116505e+06 3.116511e+06 5.499
15 irregular 3 17 217 69 3 0.157 slower 0 3.116512e+06 3.116516e+06 4.584
15 irregular 3 18 218 70 1.500000e+00 0.292 slower 0 3.116517e+06 3.116520e+06 2.544
15 irregular 3 19 219 49 3 0.335 slower 1 3.116521e+06 3.116520e+06 -1.008
15 irregular 3 20 220 50 2.500000e+00 0.571 none 2 3.116526e+06 3.116531e+06 5.500
15 irregular 3 21 221 50 1.500000e+00 0.101 slower 1 3.116532e+06 3.116534e+06 2.457
15 irregular 3 22 222 70 3 0.491 faster 1 3.116536e+06 3.116540e+06 4.181
15 irregular 3 23 223 51 2.500000e+00 0.469 faster 0 3.116541e+06 3.116546e+06 4.302
15 irregular 3 24 224 70 1.500000e+00 0.220 slower 0 3.116548e+06 3.116550e+06 2.943
15 irregular 3 25 225 49 2 0.388 slower 1 3.116552e+06 3.116555e+06 3.429
15 irregular 3 26 226 49 1 0.599 slower 1 3.116557e+06 3.116559e+06 2.215
15 irregular 3 27 227 50 2 0.166 faster 0 3.116562e+06 3.116566e+06 4.391
15 irregular 3 28 228 71 2.500000e+00 0.540 slower 0 3.116568e+06 3.116572e+06 3.673
15 irregular 3 29 229 48 2.500000e+00 0.104 slower 1 3.116576e+06 3.116579e+06 3.565
15 irregular 3 30 230 72 2 0.430 faster 1 3.116584e+06 3.116588e+06 4.644
15 irregular 3 31 231 49 1 0.145 slower 1 3.116590e+06 3.116592e+06 2.371
15 irregular 3 32 232 71 2 0.184 faster 1 3.116594e+06 3.116598e+06 3.523
15 irregular 3 33 233 50 2 0.116 slower 1 3.116600e+06 3.116603e+06 2.874
15 irregular 3 34 234 50 1.500000e+00 0.427 faster 0 3.116604e+06 3.116607e+06 2.830
15 irregular 3 35 235 49 3 0.434 slower 1 3.116608e+06 3.116612e+06 4.168
15 irregular 3 36 236 50 1 0.541 slower 1 3.116617e+06 3.116620e+06 2.553
15 irregular 3 37 237 50 1 0.305 slower 1 3.116624e+06 3.116626e+06 2.239
15 irregular 3 38 238 69 1.500000e+00 0.591 slower 0 3.116631e+06 3.116634e+06 2.898
15 irregular 3 39 239 50 1.500000e+00 0.451 slower 1 3.116636e+06 3.116640e+06 4.332
15 irregular 3 40 240 50 2 0.235 faster 0 3.116642e+06 3.116646e+06 4.320
15 irregular 3 41 241 71 3 0.255 faster 1 3.116650e+06 3.116655e+06 5.415
15 irregular 3 42 242 70 1.500000e+00 0.394 slower 0 3.116656e+06 3.116660e+06 3.619
15 irregular 3 43 243 49 3 0.259 faster 0 3.116665e+06 3.116669e+06 4.543
15 irregular 3 44 244 48 1.500000e+00 0.218 slower 1 3.116671e+06 3.116673e+06 2.443
15 irregular 3 45 245 72 2.500000e+00 0.508 slower 0 3.116674e+06 3.116678e+06 3.469
15 irregular 3 46 246 47 2.500000e+00 0.157 slower 1 3.116679e+06 3.116683e+06 3.752
15 irregular 3 47 247 72 2 0.111 slower 0 3.116685e+06 3.116688e+06 3.287
15 irregular 3 48 248 73 2.500000e+00 0.422 slower 0 3.116689e+06 3.116693e+06 4.006
15 irregular 3 49 249 46 1.500000e+00 0.549 slower 1 3.116695e+06 3.116698e+06 2.591
15 irregular 3 50 250 46 2.500000e+00 0.219 slower 1 3.116700e+06 3.116706e+06 5.353
15 irregular 3 51 251 47 2.500000e+00 0.403 none 2 3.116707e+06 3.116713e+06 5.499
15 irregular 3 52 252 73 1.500000e+00 0.467 slower 0 3.116715e+06 3.116717e+06 2.538
15 irregular 3 53 253 46 1.500000e+00 0.185 faster 0 3.116719e+06 3.116722e+06 2.862
15 irregular 3 54 254 75 1.500000e+00 0.413 faster 1 3.116724e+06 3.116727e+06 2.406
15 irregular 3 55 255 75 1 0.435 faster 1 3.116729e+06 3.116731e+06 2.128
15 irregular 3 56 256 74 1.500000e+00 0.209 slower 0 3.116732e+06 3.116735e+06 2.858
15 irregular 3 57 257 75 1 0.476 faster 1 3.116737e+06 3.116740e+06 2.949
15 irregular 3 58 258 45 1 0.497 slower 1 3.116742e+06 3.116744e+06 2.408
15 irregular 3 59 259 46 3 0.301 none 2 3.116752e+06 3.116758e+06 5.999
15 irregular 3 60 260 74 2.500000e+00 0.441 none 2 3.116760e+06 3.116766e+06 5.500
15 irregular 3 61 261 46 1 0.156 slower 1 3.116768e+06 3.116771e+06 2.358
15 irregular 3 62 262 46 1.500000e+00 0.464 slower 1 3.116777e+06 3.116781e+06 3.345
15 irregular 3 63 263 73 2 0.276 slower 0 3.116783e+06 3.116787e+06 3.656
15 irregular 3 64 264 74 1 0.368 faster 1 3.116788e+06 3.116791e+06 2.588
15 irregular 3 65 265 74 1.500000e+00 0.555 faster 1 3.116795e+06 3.116798e+06 2.746
15 irregular 3 66 266 73 2.500000e+00 0.575 faster 1 3.116801e+06 3.116806e+06 5.148
15 irregular 3 67 267 47 3 0.361 none 2 3.116807e+06 3.116813e+06 6.000
15 irregular 3 68 268 47 1 0.181 slower 1 3.116815e+06 3.116819e+06 3.782
15 irregular 3 69 269 72 2.500000e+00 0.351 none 2 3.116821e+06 3.116827e+06 5.500
15 irregular 3 70 270 48 1 0.231 slower 1 3.116834e+06 3.116836e+06 2.309
15 irregular 3 71 271 72 2.500000e+00 0.180 none 2 3.116840e+06 3.116846e+06 5.500
15 irregular 3 72 272 72 3 0.440 none 2 3.116855e+06 3.116861e+06 5.999
15 irregular 3 73 273 72 1 0.126 faster 1 3.116863e+06 3.116866e+06 2.741
15 irregular 3 74 274 71 2 0.519 slower 0 3.116868e+06 3.116872e+06 3.214
15 irregular 3 75 275 48 1 0.426 slower 1 3.116875e+06 3.116878e+06 3.348
15 irregular 3 76 276 48 2.500000e+00 0.148 slower 1 3.116880e+06 3.116884e+06 3.805
15 irregular 3 77 277 49 3 0.195 slower 1 3.116886e+06 3.116890e+06 4.139
15 irregular 3 78 278 71 1 0.344 faster 1 3.116893e+06 3.116895e+06 2.326
15 irregular 3 79 279 50 2 0.582 slower 1 3.116897e+06 3.116900e+06 2.363
15 irregular 3 80 280 70 1 0.160 slower 0 3.116902e+06 3.116905e+06 2.587
15 irregular 3 81 281 71 3 0.320 faster 1 3.116907e+06 3.116912e+06 4.764
15 irregular 3 82 282 70 1 0.553 none 2 3.116915e+06 3.116919e+06 4.000
15 irregular 3 83 283 50 2.500000e+00 0.206 none 2 3.116920e+06 3.116925e+06 5.499
15 irregular 3 84 284 50 3 0.568 slower 1 3.116929e+06 3.116934e+06 4.821
15 irregular 3 85 285 70 3 0.148 slower 0 3.116935e+06 3.116939e+06 4.386
15 irregular 3 86 286 49 2 0.522 slower 1 3.116941e+06 3.116944e+06 3.161
15 irregular 3 87 287 70 3 0.230 slower 0 3.116945e+06 3.116949e+06 4.054
15 irregular 3 88 288 71 2 0.471 slower 0 3.116950e+06 3.116953e+06 2.853
15 irregular 3 89 289 72 2 0.408 slower 0 3.116954e+06 3.116957e+06 2.931
15 irregular 3 90 290 47 3 0.134 slower 1 3.116958e+06 3.116962e+06 3.982
15 irregular 3 91 291 47 2 0.249 slower 1 3.116963e+06 3.116966e+06 3.522
15 irregular 3 92 292 72 1.500000e+00 0.342 slower 0 3.116968e+06 3.116970e+06 2.363
15 irregular 3 93 293 47 1.500000e+00 0.245 slower 1 3.116971e+06 3.116974e+06 2.531
15 irregular 3 94 294 47 2.500000e+00 0.350 slower 1 3.116975e+06 3.116979e+06 3.954
15 irregular 3 95 295 48 1.500000e+00 0.571 slower 1 3.116980e+06 3.116983e+06 2.630
15 irregular 3 96 296 72 2.500000e+00 0.350 faster 1 3.116984e+06 3.116988e+06 3.409
15 irregular 3 97 297 49 3 0.246 slower 1 3.116989e+06 3.116994e+06 4.596
15 irregular 3 98 298 71 2 0.346 faster 1 3.116996e+06 3.116999e+06 3.423
15 irregular 3 99 299 70 1 0.138 faster 1 3.117001e+06 3.117003e+06 2.146
15 irregular 3 100 300 70 1 0.319 faster 1 3.117004e+06 3.117007e+06 2.500
15 regular 4 1 301 69 2 0.308 slower 0 3.117123e+06 3.117126e+06 3.135
15 regular 4 2 302 70 2 0.143 faster 1 3.117127e+06 3.117130e+06 3.318
15 regular 4 3 303 70 2 0.432 faster 1 3.117132e+06 3.117134e+06 2.833
15 regular 4 4 304 69 2 0.138 faster 1 3.117136e+06 3.117138e+06 2.916
15 regular 4 5 305 51 2 0.487 faster 0 3.117140e+06 3.117143e+06 3.007
15 regular 4 6 306 50 2 0.210 faster 0 3.117143e+06 3.117147e+06 3.136
15 regular 4 7 307 71 2 0.502 faster 1 3.117148e+06 3.117151e+06 2.758
15 regular 4 8 308 70 2 0.224 slower 0 3.117152e+06 3.117156e+06 3.550
15 regular 4 9 309 71 2 0.236 faster 1 3.117158e+06 3.117162e+06 3.618
15 regular 4 10 310 49 2 0.286 faster 0 3.117163e+06 3.117166e+06 3.429
15 regular 4 11 311 48 2 0.585 slower 1 3.117169e+06 3.117173e+06 3.472
15 regular 4 12 312 49 2 0.559 slower 1 3.117175e+06 3.117178e+06 3.012
15 regular 4 13 313 71 2 0.300 faster 1 3.117183e+06 3.117186e+06 2.962
15 regular 4 14 314 50 2 0.348 faster 0 3.117188e+06 3.117191e+06 3.383
15 regular 4 15 315 71 2 0.125 faster 1 3.117192e+06 3.117196e+06 3.625
15 regular 4 16 316 71 2 0.346 faster 1 3.117197e+06 3.117200e+06 2.889
15 regular 4 17 317 70 2 0.465 slower 0 3.117201e+06 3.117206e+06 4.075
15 regular 4 18 318 49 2 0.118 slower 1 3.117207e+06 3.117210e+06 3.165
15 regular 4 19 319 71 2 0.124 none 2 3.117212e+06 3.117217e+06 4.999
15 regular 4 20 320 71 2 0.355 none 2 3.117219e+06 3.117224e+06 4.999
15 regular 4 21 321 71 2 0.256 slower 0 3.117226e+06 3.117229e+06 3.206
15 regular 4 22 322 48 2 0.219 slower 1 3.117232e+06 3.117235e+06 2.991
15 regular 4 23 323 49 2 0.392 slower 1 3.117237e+06 3.117240e+06 3.058
15 regular 4 24 324 49 2 0.114 faster 0 3.117241e+06 3.117244e+06 3.430
15 regular 4 25 325 48 2 0.489 none 2 3.117251e+06 3.117256e+06 5.000
15 regular 4 26 326 72 2 0.294 slower 0 3.117258e+06 3.117261e+06 3.236
15 regular 4 27 327 73 2 0.323 faster 1 3.117262e+06 3.117265e+06 2.924
15 regular 4 28 328 48 2 0.445 faster 0 3.117267e+06 3.117271e+06 3.708
15 regular 4 29 329 47 2 0.278 none 2 3.117272e+06 3.117277e+06 4.999
15 regular 4 30 330 73 2 0.591 faster 1 3.117279e+06 3.117281e+06 2.846
15 regular 4 31 331 73 2 0.531 faster 1 3.117283e+06 3.117286e+06 3.077
15 regular 4 32 332 72 2 0.520 faster 1 3.117288e+06 3.117292e+06 4.060
15 regular 4 33 333 72 2 0.301 none 2 3.117293e+06 3.117298e+06 4.999
15 regular 4 34 334 48 2 0.246 faster 0 3.117299e+06 3.117302e+06 3.781
15 regular 4 35 335 47 2 0.300 slower 1 3.117304e+06 3.117307e+06 3.469
15 regular 4 36 336 72 2 0.274 faster 1 3.117309e+06 3.117314e+06 4.753
15 regular 4 37 337 72 2 0.200 slower 0 3.117315e+06 3.117320e+06 4.415
15 regular 4 38 338 47 2 0.182 slower 1 3.117322e+06 3.117325e+06 3.174
15 regular 4 39 339 72 2 0.363 faster 1 3.117332e+06 3.117335e+06 3.534
15 regular 4 40 340 72 2 0.285 faster 1 3.117337e+06 3.117340e+06 2.981
15 regular 4 41 341 49 2 0.251 slower 1 3.117341e+06 3.117344e+06 3.562
15 regular 4 42 342 49 2 0.267 slower 1 3.117346e+06 3.117349e+06 2.884
15 regular 4 43 343 70 2 0.377 slower 0 3.117351e+06 3.117354e+06 3.051
15 regular 4 44 344 71 2 0.297 slower 0 3.117358e+06 3.117362e+06 3.309
15 regular 4 45 345 48 2 0.429 slower 1 3.117366e+06 3.117369e+06 3.558
15 regular 4 46 346 72 2 0.355 faster 1 3.117371e+06 3.117375e+06 4.268
15 regular 4 47 347 49 2 0.251 slower 1 3.117379e+06 3.117383e+06 3.933
15 regular 4 48 348 49 2 0.432 slower 1 3.117384e+06 3.117388e+06 3.389
15 regular 4 49 349 70 2 0.406 faster 1 3.117389e+06 3.117393e+06 3.331
15 regular 4 50 350 70 2 0.591 faster 1 3.117394e+06 3.117398e+06 3.238
15 regular 4 51 351 51 2 0.128 none 2 3.117399e+06 3.117404e+06 5.000
15 regular 4 52 352 51 2 0.139 faster 0 3.117405e+06 3.117409e+06 4.150
15 regular 4 53 353 50 2 0.507 faster 0 3.117412e+06 3.117416e+06 4.398
15 regular 4 54 354 71 2 0.149 slower 0 3.117417e+06 3.117422e+06 4.216
15 regular 4 55 355 72 2 0.267 none 2 3.117424e+06 3.117429e+06 5.000
15 regular 4 56 356 48 2 0.598 none 2 3.117431e+06 3.117436e+06 5.000
15 regular 4 57 357 72 2 0.578 faster 1 3.117441e+06 3.117444e+06 3.158
15 regular 4 58 358 72 2 0.220 faster 1 3.117446e+06 3.117450e+06 4.115
15 regular 4 59 359 71 2 0.534 slower 0 3.117452e+06 3.117455e+06 3.339
15 regular 4 60 360 48 2 0.591 slower 1 3.117457e+06 3.117461e+06 3.703
15 regular 4 61 361 72 2 0.587 none 2 3.117465e+06 3.117470e+06 4.999
15 regular 4 62 362 72 2 0.284 none 2 3.117471e+06 3.117476e+06 5.000
15 regular 4 63 363 48 2 0.125 none 2 3.117479e+06 3.117484e+06 4.999
15 regular 4 64 364 48 2 0.429 slower 1 3.117488e+06 3.117491e+06 3.089
15 regular 4 65 365 71 2 0.414 faster 1 3.117493e+06 3.117496e+06 3.137
15 regular 4 66 366 49 2 0.271 faster 0 3.117498e+06 3.117501e+06 3.299
15 regular 4 67 367 72 2 0.239 slower 0 3.117503e+06 3.117506e+06 3.281
15 regular 4 68 368 73 2 0.281 slower 0 3.117508e+06 3.117511e+06 3.367
15 regular 4 69 369 74 2 0.187 faster 1 3.117513e+06 3.117517e+06 3.122
15 regular 4 70 370 47 2 0.336 slower 1 3.117519e+06 3.117522e+06 2.885
15 regular 4 71 371 47 2 0.253 slower 1 3.117524e+06 3.117527e+06 2.949
15 regular 4 72 372 48 2 0.508 none 2 3.117528e+06 3.117533e+06 4.999
15 regular 4 73 373 72 2 0.139 slower 0 3.117537e+06 3.117540e+06 2.985
15 regular 4 74 374 47 2 0.361 slower 1 3.117544e+06 3.117546e+06 2.769
15 regular 4 75 375 47 2 0.115 faster 0 3.117549e+06 3.117552e+06 3.276
15 regular 4 76 376 46 2 0.432 slower 1 3.117553e+06 3.117557e+06 3.859
15 regular 4 77 377 73 2 0.271 none 2 3.117562e+06 3.117567e+06 4.999
15 regular 4 78 378 73 2 0.177 none 2 3.117570e+06 3.117575e+06 4.999
15 regular 4 79 379 73 2 0.322 none 2 3.117580e+06 3.117585e+06 4.999
15 regular 4 80 380 73 2 0.126 faster 1 3.117586e+06 3.117590e+06 3.566
15 regular 4 81 381 47 2 0.316 faster 0 3.117592e+06 3.117595e+06 2.980
15 regular 4 82 382 46 2 0.183 slower 1 3.117597e+06 3.117600e+06 3.098
15 regular 4 83 383 73 2 0.212 slower 0 3.117602e+06 3.117605e+06 3.143
15 regular 4 84 384 46 2 0.142 faster 0 3.117607e+06 3.117610e+06 3.684
15 regular 4 85 385 45 2 0.216 slower 1 3.117611e+06 3.117615e+06 3.809
15 regular 4 86 386 75 2 0.526 slower 0 3.117618e+06 3.117621e+06 3.646
15 regular 4 87 387 76 2 0.173 faster 1 3.117623e+06 3.117626e+06 2.964
15 regular 4 88 388 45 2 0.257 slower 1 3.117629e+06 3.117633e+06 4.249
15 regular 4 89 389 45 2 0.502 slower 1 3.117635e+06 3.117638e+06 3.099
15 regular 4 90 390 46 2 0.297 slower 1 3.117639e+06 3.117642e+06 3.040
15 regular 4 91 391 46 2 0.164 slower 1 3.117644e+06 3.117646e+06 2.835
15 regular 4 92 392 47 2 0.147 faster 0 3.117648e+06 3.117652e+06 3.707
15 regular 4 93 393 46 2 0.574 slower 1 3.117654e+06 3.117658e+06 3.816
15 regular 4 94 394 46 2 0.430 slower 1 3.117659e+06 3.117664e+06 4.264
15 regular 4 95 395 47 2 0.345 slower 1 3.117666e+06 3.117670e+06 3.601
15 regular 4 96 396 47 2 0.341 slower 1 3.117671e+06 3.117674e+06 2.806
15 regular 4 97 397 48 2 0.295 slower 1 3.117676e+06 3.117679e+06 2.961
15 regular 4 98 398 48 2 0.212 slower 1 3.117681e+06 3.117684e+06 2.917
15 regular 4 99 399 71 2 0.388 faster 1 3.117687e+06 3.117690e+06 3.324
15 regular 4 100 400 71 2 0.540 slower 0 3.117693e+06 3.117697e+06 3.473
15 irregular 5 1 401 48 2.500000e+00 0.249 slower 1 3.117810e+06 3.117814e+06 3.705
15 irregular 5 2 402 71 3 0.381 slower 0 3.117815e+06 3.117819e+06 4.256
15 irregular 5 3 403 72 1.500000e+00 0.296 faster 1 3.117820e+06 3.117823e+06 2.763
15 irregular 5 4 404 48 1 0.462 faster 0 3.117825e+06 3.117828e+06 3.036
15 irregular 5 5 405 73 2 0.137 slower 0 3.117829e+06 3.117832e+06 3.099
15 irregular 5 6 406 46 1 0.230 slower 1 3.117833e+06 3.117835e+06 1.854
15 irregular 5 7 407 47 1 0.600 slower 1 3.117836e+06 3.117838e+06 2.139
15 irregular 5 8 408 73 3 0.528 slower 0 3.117840e+06 3.117844e+06 3.904
15 irregular 5 9 409 46 3 0.290 slower 1 3.117845e+06 3.117849e+06 3.894
15 irregular 5 10 410 47 3 0.324 slower 1 3.117850e+06 3.117854e+06 4.460
15 irregular 5 11 411 73 1.500000e+00 0.198 none 2 3.117856e+06 3.117861e+06 4.499
15 irregular 5 12 412 73 1 0.372 slower 0 3.117862e+06 3.117865e+06 2.718
15 irregular 5 13 413 74 3 0.399 none 2 3.117867e+06 3.117873e+06 5.999
15 irregular 5 14 414 74 2 0.372 slower 0 3.117875e+06 3.117878e+06 3.328
15 irregular 5 15 415 75 2.500000e+00 0.485 slower 0 3.117881e+06 3.117885e+06 3.863
15 irregular 5 16 416 76 3 0.258 slower 0 3.117886e+06 3.117890e+06 3.865
15 irregular 5 17 417 77 3 0.566 slower 0 3.117891e+06 3.117896e+06 4.561
15 irregular 5 18 418 42 1.500000e+00 0.332 slower 1 3.117897e+06 3.117899e+06 2.348
15 irregular 5 19 419 43 3 0.241 slower 1 3.117900e+06 3.117904e+06 3.759
15 irregular 5 20 420 43 2 0.209 slower 1 3.117905e+06 3.117908e+06 2.707
15 irregular 5 21 421 76 2.500000e+00 0.324 slower 0 3.117910e+06 3.117914e+06 4.121
15 irregular 5 22 422 43 2.500000e+00 0.144 slower 1 3.117917e+06 3.117921e+06 3.456
15 irregular 5 23 423 43 2.500000e+00 0.271 slower 1 3.117922e+06 3.117927e+06 4.220
15 irregular 5 24 424 44 2.500000e+00 0.262 slower 1 3.117928e+06 3.117931e+06 3.626
15 irregular 5 25 425 76 2 0.251 slower 0 3.117933e+06 3.117936e+06 3.647
15 irregular 5 26 426 77 1 0.295 slower 0 3.117939e+06 3.117941e+06 2.267
15 irregular 5 27 427 78 2.500000e+00 0.447 slower 0 3.117945e+06 3.117948e+06 3.633
15 irregular 5 28 428 41 2.500000e+00 0.106 slower 1 3.117950e+06 3.117953e+06 3.680
15 irregular 5 29 429 78 2.500000e+00 0.566 slower 0 3.117955e+06 3.117960e+06 4.211
15 irregular 5 30 430 41 3 0.288 slower 1 3.117960e+06 3.117964e+06 3.919
15 irregular 5 31 431 79 1.500000e+00 0.224 faster 1 3.117965e+06 3.117968e+06 2.248
15 irregular 5 32 432 42 2 0.438 slower 1 3.117969e+06 3.117972e+06 3.460
15 irregular 5 33 433 78 1.500000e+00 0.586 slower 0 3.117975e+06 3.117978e+06 2.813
15 irregular 5 34 434 41 1 0.170 slower 1 3.117982e+06 3.117985e+06 2.519
15 irregular 5 35 435 42 3 0.353 slower 1 3.117986e+06 3.117990e+06 4.121
15 irregular 5 36 436 78 1 0.440 faster 1 3.117992e+06 3.117994e+06 2.053
15 irregular 5 37 437 77 1.500000e+00 0.318 slower 0 3.117995e+06 3.117998e+06 2.378
15 irregular 5 38 438 78 1 0.527 slower 0 3.118000e+06 3.118002e+06 2.189
15 irregular 5 39 439 41 2.500000e+00 0.323 slower 1 3.118004e+06 3.118007e+06 3.492
15 irregular 5 40 440 79 1 0.118 faster 1 3.118011e+06 3.118015e+06 3.419
15 irregular 5 41 441 78 2.500000e+00 0.224 slower 0 3.118020e+06 3.118023e+06 3.263
15 irregular 5 42 442 41 2.500000e+00 0.191 slower 1 3.118025e+06 3.118028e+06 3.194
15 irregular 5 43 443 41 2 0.164 slower 1 3.118029e+06 3.118033e+06 3.365
15 irregular 5 44 444 42 1.500000e+00 0.139 slower 1 3.118034e+06 3.118037e+06 2.635
15 irregular 5 45 445 42 1.500000e+00 0.458 slower 1 3.118038e+06 3.118041e+06 2.642
15 irregular 5 46 446 43 1 0.465 slower 1 3.118042e+06 3.118045e+06 2.120
15 irregular 5 47 447 77 1.500000e+00 0.527 faster 1 3.118047e+06 3.118049e+06 2.355
15 irregular 5 48 448 76 2.500000e+00 0.187 slower 0 3.118050e+06 3.118053e+06 3.565
15 irregular 5 49 449 43 3 0.222 slower 1 3.118063e+06 3.118068e+06 4.234
15 irregular 5 50 450 77 2 0.325 slower 0 3.118069e+06 3.118073e+06 3.523
15 irregular 5 51 451 42 2 0.514 faster 0 3.118074e+06 3.118077e+06 3.136
15 irregular 5 52 452 41 1.500000e+00 0.440 slower 1 3.118079e+06 3.118082e+06 3.073
15 irregular 5 53 453 78 2 0.261 slower 0 3.118083e+06 3.118087e+06 3.574
15 irregular 5 54 454 79 3 0.261 slower 0 3.118088e+06 3.118093e+06 4.027
15 irregular 5 55 455 40 1.500000e+00 0.365 slower 1 3.118094e+06 3.118097e+06 2.815
15 irregular 5 56 456 80 2.500000e+00 0.146 faster 1 3.118098e+06 3.118102e+06 4.174
15 irregular 5 57 457 41 2 0.265 slower 1 3.118104e+06 3.118107e+06 3.174
15 irregular 5 58 458 41 2 0.345 slower 1 3.118108e+06 3.118112e+06 3.052
15 irregular 5 59 459 78 3 0.450 faster 1 3.118113e+06 3.118118e+06 4.185
15 irregular 5 60 460 42 1.500000e+00 0.245 slower 1 3.118119e+06 3.118122e+06 2.922
15 irregular 5 61 461 77 2.500000e+00 0.116 faster 1 3.118124e+06 3.118128e+06 3.979
15 irregular 5 62 462 43 3 0.218 slower 1 3.118129e+06 3.118133e+06 4.040
15 irregular 5 63 463 44 1 0.405 slower 1 3.118135e+06 3.118137e+06 2.130
15 irregular 5 64 464 44 2 0.243 slower 1 3.118139e+06 3.118142e+06 2.926
15 irregular 5 65 465 45 2 0.104 slower 1 3.118143e+06 3.118146e+06 2.882
15 irregular 5 66 466 75 2 0.510 slower 0 3.118148e+06 3.118151e+06 3.075
15 irregular 5 67 467 76 3 0.509 faster 1 3.118152e+06 3.118156e+06 4.503
15 irregular 5 68 468 75 1 0.248 faster 1 3.118158e+06 3.118160e+06 2.279
15 irregular 5 69 469 45 2.500000e+00 0.221 slower 1 3.118162e+06 3.118166e+06 3.390
15 irregular 5 70 470 46 1 0.426 slower 1 3.118167e+06 3.118169e+06 1.901
15 irregular 5 71 471 74 3 0.195 slower 0 3.118171e+06 3.118175e+06 3.976
15 irregular 5 72 472 75 1 0.579 slower 0 3.118177e+06 3.118179e+06 2.044
15 irregular 5 73 473 44 3 0.364 none 2 3.118180e+06 3.118186e+06 5.999
15 irregular 5 74 474 76 1.500000e+00 0.577 faster 1 3.118187e+06 3.118190e+06 2.781
15 irregular 5 75 475 45 3 0.368 slower 1 3.118191e+06 3.118195e+06 4.096
15 irregular 5 76 476 75 2.500000e+00 0.187 faster 1 3.118196e+06 3.118199e+06 3.486
15 irregular 5 77 477 46 1.500000e+00 0.201 slower 1 3.118200e+06 3.118203e+06 2.582
15 irregular 5 78 478 74 1.500000e+00 0.459 faster 1 3.118204e+06 3.118207e+06 3.205
15 irregular 5 79 479 47 1.500000e+00 0.434 slower 1 3.118210e+06 3.118212e+06 2.618
15 irregular 5 80 480 47 1.500000e+00 0.376 slower 1 3.118214e+06 3.118216e+06 2.590
15 irregular 5 81 481 48 1 0.369 faster 0 3.118218e+06 3.118221e+06 2.421
15 irregular 5 82 482 73 3 0.280 faster 1 3.118223e+06 3.118227e+06 4.201
15 irregular 5 83 483 73 2 0.318 slower 0 3.118228e+06 3.118231e+06 2.824
15 irregular 5 84 484 46 2 0.499 slower 1 3.118232e+06 3.118236e+06 3.507
15 irregular 5 85 485 73 2 0.418 faster 1 3.118237e+06 3.118240e+06 2.718
15 irregular 5 86 486 73 1.500000e+00 0.407 slower 0 3.118241e+06 3.118244e+06 2.891
15 irregular 5 87 487 74 2 0.290 faster 1 3.118247e+06 3.118250e+06 3.094
15 irregular 5 88 488 47 2.500000e+00 0.341 slower 1 3.118251e+06 3.118254e+06 3.549
15 irregular 5 89 489 47 1 0.248 slower 1 3.118255e+06 3.118258e+06 2.582
15 irregular 5 90 490 48 1.500000e+00 0.114 slower 1 3.118259e+06 3.118261e+06 2.369
15 irregular 5 91 491 48 1 0.357 slower 1 3.118262e+06 3.118265e+06 2.338
15 irregular 5 92 492 49 2 0.360 faster 0 3.118266e+06 3.118269e+06 3.188
15 irregular 5 93 493 72 1 0.517 slower 0 3.118271e+06 3.118273e+06 2.402
15 irregular 5 94 494 73 1 0.264 faster 1 3.118278e+06 3.118281e+06 2.286
15 irregular 5 95 495 47 2.500000e+00 0.187 slower 1 3.118281e+06 3.118285e+06 3.283
15 irregular 5 96 496 48 3 0.116 slower 1 3.118286e+06 3.118290e+06 4.226
15 irregular 5 97 497 72 2.500000e+00 0.317 faster 1 3.118291e+06 3.118294e+06 3.431
15 irregular 5 98 498 71 1 0.434 slower 0 3.118296e+06 3.118298e+06 2.475
15 irregular 5 99 499 72 1.500000e+00 0.514 slower 0 3.118300e+06 3.118303e+06 2.452
15 irregular 5 100 500 73 2 0.262 slower 0 3.118304e+06 3.118307e+06 3.439
15 regular 6 1 501 64 2.500000e+00 0.580 slower 0 3.210272e+06 3.210276e+06 3.558
15 regular 6 2 502 54 2.500000e+00 0.475 faster 0 3.210278e+06 3.210281e+06 3.205
15 regular 6 3 503 68 2.500000e+00 0.504 faster 1 3.210282e+06 3.210286e+06 3.616
15 regular 6 4 504 52 2.500000e+00 0.275 slower 1 3.210287e+06 3.210291e+06 4.002
15 regular 6 5 505 54 2.500000e+00 0.323 faster 0 3.210292e+06 3.210295e+06 3.322
15 regular 6 6 506 68 2.500000e+00 0.271 slower 0 3.210296e+06 3.210300e+06 3.830
15 regular 6 7 507 50 2.500000e+00 0.426 slower 1 3.210301e+06 3.210305e+06 3.573
15 regular 6 8 508 50 2.500000e+00 0.522 slower 1 3.210306e+06 3.210309e+06 3.522
15 regular 6 9 509 68 2.500000e+00 0.377 faster 1 3.210310e+06 3.210315e+06 4.126
15 regular 6 10 510 52 2.500000e+00 0.274 faster 0 3.210315e+06 3.210319e+06 3.732
15 regular 6 11 511 69 2.500000e+00 0.251 slower 0 3.210320e+06 3.210323e+06 3.290
15 regular 6 12 512 50 2.500000e+00 0.400 faster 0 3.210325e+06 3.210329e+06 4.033
15 regular 6 13 513 49 2.500000e+00 0.339 slower 1 3.210330e+06 3.210333e+06 3.239
15 regular 6 14 514 70 2.500000e+00 0.511 slower 0 3.210334e+06 3.210338e+06 3.802
15 regular 6 15 515 71 2.500000e+00 0.581 slower 0 3.210339e+06 3.210343e+06 3.550
15 regular 6 16 516 48 2.500000e+00 0.524 slower 1 3.210344e+06 3.210347e+06 3.579
15 regular 6 17 517 72 2.500000e+00 0.168 slower 0 3.210348e+06 3.210352e+06 3.691
15 regular 6 18 518 47 2.500000e+00 0.146 faster 0 3.210353e+06 3.210357e+06 3.552
15 regular 6 19 519 74 2.500000e+00 0.434 slower 0 3.210358e+06 3.210361e+06 3.454
15 regular 6 20 520 45 2.500000e+00 0.267 faster 0 3.210362e+06 3.210366e+06 3.833
15 regular 6 21 521 76 2.500000e+00 0.217 faster 1 3.210367e+06 3.210370e+06 3.311
15 regular 6 22 522 75 2.500000e+00 0.198 faster 1 3.210372e+06 3.210376e+06 3.890
15 regular 6 23 523 45 2.500000e+00 0.575 slower 1 3.210377e+06 3.210380e+06 3.378
15 regular 6 24 524 46 2.500000e+00 0.207 slower 1 3.210381e+06 3.210385e+06 3.458
15 regular 6 25 525 74 2.500000e+00 0.106 faster 1 3.210386e+06 3.210389e+06 3.465
15 regular 6 26 526 73 2.500000e+00 0.146 faster 1 3.210390e+06 3.210394e+06 3.499
15 regular 6 27 527 73 2.500000e+00 0.584 faster 1 3.210395e+06 3.210399e+06 3.781
15 regular 6 28 528 48 2.500000e+00 0.316 faster 0 3.210400e+06 3.210404e+06 3.618
15 regular 6 29 529 47 2.500000e+00 0.391 faster 0 3.210405e+06 3.210409e+06 3.927
15 regular 6 30 530 46 2.500000e+00 0.119 slower 1 3.210409e+06 3.210413e+06 3.427
15 regular 6 31 531 46 2.500000e+00 0.596 slower 1 3.210414e+06 3.210417e+06 3.294
15 regular 6 32 532 73 2.500000e+00 0.441 faster 1 3.210419e+06 3.210422e+06 3.501
15 regular 6 33 533 47 2.500000e+00 0.161 faster 0 3.210423e+06 3.210426e+06 3.356
15 regular 6 34 534 74 2.500000e+00 0.515 faster 1 3.210428e+06 3.210431e+06 3.374
15 regular 6 35 535 73 2.500000e+00 0.300 faster 1 3.210432e+06 3.210435e+06 3.229
15 regular 6 36 536 47 2.500000e+00 0.595 slower 1 3.210437e+06 3.210440e+06 3.212
15 regular 6 37 537 72 2.500000e+00 0.566 faster 1 3.210442e+06 3.210445e+06 3.228
15 regular 6 38 538 48 2.500000e+00 0.344 slower 1 3.210446e+06 3.210450e+06 3.468
15 regular 6 39 539 71 2.500000e+00 0.585 faster 1 3.210451e+06 3.210455e+06 3.407
15 regular 6 40 540 71 2.500000e+00 0.267 faster 1 3.210456e+06 3.210459e+06 3.517
15 regular 6 41 541 70 2.500000e+00 0.241 faster 1 3.210460e+06 3.210464e+06 3.267
15 regular 6 42 542 50 2.500000e+00 0.505 faster 0 3.210465e+06 3.210469e+06 3.782
15 regular 6 43 543 49 2.500000e+00 0.219 none 2 3.210469e+06 3.210475e+06 5.500
15 regular 6 44 544 49 2.500000e+00 0.297 slower 1 3.210476e+06 3.210479e+06 3.432
15 regular 6 45 545 70 2.500000e+00 0.139 faster 1 3.210480e+06 3.210484e+06 3.662
15 regular 6 46 546 50 2.500000e+00 0.186 none 2 3.210485e+06 3.210490e+06 5.500
15 regular 6 47 547 50 2.500000e+00 0.118 slower 1 3.210499e+06 3.210503e+06 3.334
15 regular 6 48 548 51 2.500000e+00 0.326 slower 1 3.210504e+06 3.210507e+06 3.534
15 regular 6 49 549 69 2.500000e+00 0.336 slower 0 3.210508e+06 3.210512e+06 3.289
15 regular 6 50 550 50 2.500000e+00 0.124 faster 0 3.210512e+06 3.210516e+06 3.088
15 regular 6 51 551 71 2.500000e+00 0.161 faster 1 3.210516e+06 3.210520e+06 3.349
15 regular 6 52 552 50 2.500000e+00 0.287 slower 1 3.210521e+06 3.210524e+06 3.408
15 regular 6 53 553 70 2.500000e+00 0.584 slower 0 3.210526e+06 3.210530e+06 4.165
15 regular 6 54 554 71 2.500000e+00 0.401 faster 1 3.210531e+06 3.210535e+06 3.817
15 regular 6 55 555 50 2.500000e+00 0.484 faster 0 3.210536e+06 3.210539e+06 3.633
15 regular 6 56 556 71 2.500000e+00 0.161 faster 1 3.210541e+06 3.210544e+06 3.111
15 regular 6 57 557 49 2.500000e+00 0.131 slower 1 3.210545e+06 3.210548e+06 3.179
15 regular 6 58 558 70 2.500000e+00 0.580 faster 1 3.210549e+06 3.210553e+06 3.164
15 regular 6 59 559 70 2.500000e+00 0.381 faster 1 3.210554e+06 3.210557e+06 3.339
15 regular 6 60 560 51 2.500000e+00 0.311 faster 0 3.210559e+06 3.210562e+06 3.308
15 regular 6 61 561 70 2.500000e+00 0.146 faster 1 3.210563e+06 3.210567e+06 3.661
15 regular 6 62 562 70 2.500000e+00 0.525 faster 1 3.210568e+06 3.210572e+06 3.414
15 regular 6 63 563 69 2.500000e+00 0.239 faster 1 3.210572e+06 3.210576e+06 3.210
15 regular 6 64 564 51 2.500000e+00 0.576 faster 0 3.210577e+06 3.210581e+06 3.515
15 regular 6 65 565 70 2.500000e+00 0.117 faster 1 3.210582e+06 3.210585e+06 3.619
15 regular 6 66 566 51 2.500000e+00 0.533 faster 0 3.210587e+06 3.210591e+06 3.742
15 regular 6 67 567 50 2.500000e+00 0.517 faster 0 3.210592e+06 3.210595e+06 3.447
15 regular 6 68 568 71 2.500000e+00 0.263 faster 1 3.210596e+06 3.210600e+06 3.662
15 regular 6 69 569 71 2.500000e+00 0.209 faster 1 3.210601e+06 3.210605e+06 3.689
15 regular 6 70 570 70 2.500000e+00 0.526 slower 0 3.210606e+06 3.210610e+06 3.532
15 regular 6 71 571 49 2.500000e+00 0.318 slower 1 3.210611e+06 3.210614e+06 3.339
15 regular 6 72 572 71 2.500000e+00 0.217 faster 1 3.210615e+06 3.210618e+06 3.253
15 regular 6 73 573 50 2.500000e+00 0.389 slower 1 3.210620e+06 3.210623e+06 3.491
15 regular 6 74 574 50 2.500000e+00 0.292 faster 0 3.210624e+06 3.210628e+06 3.753
15 regular 6 75 575 49 2.500000e+00 0.600 slower 1 3.210629e+06 3.210633e+06 3.462
15 regular 6 76 576 50 2.500000e+00 0.227 slower 1 3.210634e+06 3.210637e+06 3.314
15 regular 6 77 577 70 2.500000e+00 0.439 slower 0 3.210639e+06 3.210642e+06 3.808
15 regular 6 78 578 71 2.500000e+00 0.358 slower 0 3.210643e+06 3.210647e+06 3.495
15 regular 6 79 579 48 2.500000e+00 0.573 slower 1 3.210648e+06 3.210651e+06 3.380
15 regular 6 80 580 49 2.500000e+00 0.202 slower 1 3.210652e+06 3.210656e+06 3.414
15 regular 6 81 581 71 2.500000e+00 0.450 faster 1 3.210657e+06 3.210661e+06 3.900
15 regular 6 82 582 70 2.500000e+00 0.326 faster 1 3.210662e+06 3.210666e+06 3.730
15 regular 6 83 583 50 2.500000e+00 0.368 slower 1 3.210667e+06 3.210670e+06 3.630
15 regular 6 84 584 51 2.500000e+00 0.258 slower 1 3.210671e+06 3.210675e+06 3.457
15 regular 6 85 585 51 2.500000e+00 0.204 none 2 3.210676e+06 3.210681e+06 5.499
15 regular 6 86 586 69 2.500000e+00 0.209 faster 1 3.210682e+06 3.210686e+06 3.831
15 regular 6 87 587 68 2.500000e+00 0.471 faster 1 3.210687e+06 3.210690e+06 3.470
15 regular 6 88 588 68 2.500000e+00 0.150 faster 1 3.210691e+06 3.210695e+06 3.432
15 regular 6 89 589 67 2.500000e+00 0.262 slower 0 3.210696e+06 3.210699e+06 3.757
15 regular 6 90 590 68 2.500000e+00 0.321 faster 1 3.210700e+06 3.210704e+06 3.432
15 regular 6 91 591 52 2.500000e+00 0.271 faster 0 3.210705e+06 3.210708e+06 3.427
15 regular 6 92 592 69 2.500000e+00 0.442 faster 1 3.210709e+06 3.210713e+06 3.548
15 regular 6 93 593 52 2.500000e+00 0.413 slower 1 3.210714e+06 3.210717e+06 3.449
15 regular 6 94 594 52 2.500000e+00 0.474 faster 0 3.210718e+06 3.210722e+06 3.675
15 regular 6 95 595 51 2.500000e+00 0.553 faster 0 3.210723e+06 3.210727e+06 3.343
15 regular 6 96 596 70 2.500000e+00 0.586 faster 1 3.210728e+06 3.210731e+06 3.549
15 regular 6 97 597 51 2.500000e+00 0.373 faster 0 3.210733e+06 3.210736e+06 3.346
15 regular 6 98 598 70 2.500000e+00 0.384 faster 1 3.210737e+06 3.210740e+06 3.251
15 regular 6 99 599 70 2.500000e+00 0.139 faster 1 3.210741e+06 3.210744e+06 3.261
15 regular 6 100 600 51 2.500000e+00 0.373 faster 0 3.210746e+06 3.210749e+06 3.337
15 irregular 7 1 601 50 2 0.568 faster 0 3.210869e+06 3.210872e+06 2.860
15 irregular 7 2 602 49 1 0.338 faster 0 3.210873e+06 3.210875e+06 1.822
15 irregular 7 3 603 48 2 0.245 slower 1 3.210876e+06 3.210879e+06 2.632
15 irregular 7 4 604 48 1.500000e+00 0.143 faster 0 3.210880e+06 3.210882e+06 2.536
15 irregular 7 5 605 47 2 0.477 slower 1 3.210883e+06 3.210886e+06 2.620
15 irregular 7 6 606 48 2.500000e+00 0.268 slower 1 3.210887e+06 3.210890e+06 3.198
15 irregular 7 7 607 72 1.500000e+00 0.436 slower 0 3.210892e+06 3.210895e+06 2.783
15 irregular 7 8 608 47 3 0.272 slower 1 3.210896e+06 3.210899e+06 3.692
15 irregular 7 9 609 48 1.500000e+00 0.172 faster 0 3.210901e+06 3.210903e+06 2.526
15 irregular 7 10 610 47 3 0.251 slower 1 3.210904e+06 3.210908e+06 3.785
15 irregular 7 11 611 73 1 0.108 faster 1 3.210909e+06 3.210911e+06 2.455
15 irregular 7 12 612 48 2.500000e+00 0.335 slower 1 3.210913e+06 3.210916e+06 3.281
15 irregular 7 13 613 72 2 0.296 faster 1 3.210917e+06 3.210921e+06 3.298
15 irregular 7 14 614 71 2 0.402 faster 1 3.210922e+06 3.210925e+06 2.981
15 irregular 7 15 615 49 2.500000e+00 0.363 slower 1 3.210926e+06 3.210929e+06 3.496
15 irregular 7 16 616 70 1 0.302 faster 1 3.210930e+06 3.210933e+06 3.043
15 irregular 7 17 617 50 3 0.119 slower 1 3.210934e+06 3.210938e+06 3.704
15 irregular 7 18 618 69 1 0.156 faster 1 3.210939e+06 3.210941e+06 2.454
15 irregular 7 19 619 69 3 0.292 faster 1 3.210943e+06 3.210947e+06 4.640
15 irregular 7 20 620 68 1.500000e+00 0.274 faster 1 3.210948e+06 3.210951e+06 2.699
15 irregular 7 21 621 52 1.500000e+00 0.496 slower 1 3.210952e+06 3.210955e+06 3.122
15 irregular 7 22 622 53 1 0.321 faster 0 3.210956e+06 3.210958e+06 2.212
15 irregular 7 23 623 52 3 0.246 slower 1 3.210960e+06 3.210964e+06 3.960
15 irregular 7 24 624 52 1.500000e+00 0.512 slower 1 3.210965e+06 3.210967e+06 2.624
15 irregular 7 25 625 53 1 0.448 faster 0 3.210969e+06 3.210971e+06 2.296
15 irregular 7 26 626 68 3 0.126 slower 0 3.210972e+06 3.210976e+06 3.889
15 irregular 7 27 627 69 1.500000e+00 0.533 faster 1 3.210977e+06 3.210980e+06 2.945
15 irregular 7 28 628 69 1 0.466 faster 1 3.210981e+06 3.210983e+06 1.910
15 irregular 7 29 629 68 3 0.480 faster 1 3.210984e+06 3.210988e+06 3.890
15 irregular 7 30 630 68 2.500000e+00 0.369 faster 1 3.210989e+06 3.210993e+06 3.706
15 irregular 7 31 631 67 2 0.426 faster 1 3.210994e+06 3.210997e+06 2.993
15 irregular 7 32 632 53 2 0.496 slower 1 3.210998e+06 3.211001e+06 3.085
15 irregular 7 33 633 54 1 0.562 faster 0 3.211003e+06 3.211004e+06 1.731
15 irregular 7 34 634 67 1.500000e+00 0.553 faster 1 3.211006e+06 3.211008e+06 2.434
15 irregular 7 35 635 53 2.500000e+00 0.514 slower 1 3.211009e+06 3.211013e+06 3.564
15 irregular 7 36 636 66 1 0.589 faster 1 3.211015e+06 3.211016e+06 1.896
15 irregular 7 37 637 54 1.500000e+00 0.447 faster 0 3.211018e+06 3.211020e+06 2.493
15 irregular 7 38 638 53 2 0.582 slower 1 3.211022e+06 3.211025e+06 3.012
15 irregular 7 39 639 66 2.500000e+00 0.459 faster 1 3.211026e+06 3.211030e+06 3.463
15 irregular 7 40 640 66 3 0.501 slower 0 3.211032e+06 3.211036e+06 4.239
15 irregular 7 41 641 53 2.500000e+00 0.416 slower 1 3.211037e+06 3.211041e+06 3.793
15 irregular 7 42 642 54 1.500000e+00 0.273 faster 0 3.211042e+06 3.211044e+06 2.740
15 irregular 7 43 643 53 3 0.346 slower 1 3.211045e+06 3.211050e+06 4.439
15 irregular 7 44 644 53 3 0.180 slower 1 3.211051e+06 3.211055e+06 4.179
15 irregular 7 45 645 54 2.500000e+00 0.329 faster 0 3.211056e+06 3.211060e+06 3.621
15 irregular 7 46 646 67 2.500000e+00 0.187 faster 1 3.211061e+06 3.211064e+06 3.466
15 irregular 7 47 647 67 1.500000e+00 0.287 faster 1 3.211065e+06 3.211068e+06 2.442
15 irregular 7 48 648 66 2.500000e+00 0.293 slower 0 3.211069e+06 3.211072e+06 3.372
15 irregular 7 49 649 67 1 0.406 faster 1 3.211073e+06 3.211075e+06 2.079
15 irregular 7 50 650 67 3 0.102 none 2 3.211076e+06 3.211082e+06 5.999
15 irregular 7 51 651 67 2 0.382 none 2 3.211083e+06 3.211088e+06 4.999
15 irregular 7 52 652 53 2.500000e+00 0.276 slower 1 3.211089e+06 3.211092e+06 3.539
15 irregular 7 53 653 66 2.500000e+00 0.446 faster 1 3.211093e+06 3.211097e+06 3.916
15 irregular 7 54 654 66 2 0.235 slower 0 3.211098e+06 3.211102e+06 3.472
15 irregular 7 55 655 67 1 0.238 faster 1 3.211103e+06 3.211106e+06 3.005
15 irregular 7 56 656 54 1.500000e+00 0.383 faster 0 3.211107e+06 3.211109e+06 2.716
15 irregular 7 57 657 67 2 0.521 slower 0 3.211111e+06 3.211114e+06 2.906
15 irregular 7 58 658 52 2 0.487 slower 1 3.211115e+06 3.211118e+06 3.444
15 irregular 7 59 659 68 2 0.364 faster 1 3.211119e+06 3.211122e+06 2.992
15 irregular 7 60 660 67 1.500000e+00 0.498 faster 1 3.211124e+06 3.211126e+06 2.430
15 irregular 7 61 661 67 3 0.521 slower 0 3.211128e+06 3.211131e+06 3.808
15 irregular 7 62 662 68 1 0.598 faster 1 3.211133e+06 3.211135e+06 2.097
15 irregular 7 63 663 53 1 0.368 slower 1 3.211136e+06 3.211138e+06 2.259
15 irregular 7 64 664 53 1 0.418 faster 0 3.211139e+06 3.211141e+06 2.072
15 irregular 7 65 665 52 1.500000e+00 0.541 slower 1 3.211143e+06 3.211145e+06 2.726
15 irregular 7 66 666 67 3 0.118 slower 0 3.211146e+06 3.211150e+06 3.994
15 irregular 7 67 667 52 1 0.438 faster 0 3.211152e+06 3.211154e+06 2.053
15 irregular 7 68 668 51 1 0.129 faster 0 3.211155e+06 3.211157e+06 2.054
15 irregular 7 69 669 50 3 0.143 slower 1 3.211158e+06 3.211162e+06 4.105
15 irregular 7 70 670 70 1.500000e+00 0.177 slower 0 3.211163e+06 3.211166e+06 2.778
15 irregular 7 71 671 71 2.500000e+00 0.495 faster 1 3.211167e+06 3.211171e+06 3.539
15 irregular 7 72 672 70 3 0.575 slower 0 3.211172e+06 3.211177e+06 4.332
15 irregular 7 73 673 49 3 0.349 slower 1 3.211178e+06 3.211182e+06 4.176
15 irregular 7 74 674 49 3 0.230 slower 1 3.211183e+06 3.211187e+06 3.939
15 irregular 7 75 675 70 1.500000e+00 0.596 faster 1 3.211188e+06 3.211191e+06 2.727
15 irregular 7 76 676 50 1.500000e+00 0.102 slower 1 3.211191e+06 3.211194e+06 3.051
15 irregular 7 77 677 51 2 0.340 slower 1 3.211196e+06 3.211199e+06 3.007
15 irregular 7 78 678 69 1.500000e+00 0.436 slower 0 3.211200e+06 3.211203e+06 2.955
15 irregular 7 79 679 70 2.500000e+00 0.296 slower 0 3.211204e+06 3.211208e+06 3.633
15 irregular 7 80 680 49 1 0.210 slower 1 3.211209e+06 3.211211e+06 2.244
15 irregular 7 81 681 70 2 0.418 slower 0 3.211213e+06 3.211216e+06 2.923
15 irregular 7 82 682 71 2 0.430 slower 0 3.211218e+06 3.211221e+06 2.940
15 irregular 7 83 683 48 2 0.408 slower 1 3.211223e+06 3.211226e+06 2.840
15 irregular 7 84 684 72 2 0.132 slower 0 3.211227e+06 3.211229e+06 2.721
15 irregular 7 85 685 47 2.500000e+00 0.496 slower 1 3.211231e+06 3.211234e+06 3.233
15 irregular 7 86 686 48 2.500000e+00 0.389 slower 1 3.211235e+06 3.211239e+06 3.325
15 irregular 7 87 687 72 2.500000e+00 0.168 faster 1 3.211239e+06 3.211243e+06 3.707
15 irregular 7 88 688 71 1 0.597 faster 1 3.211244e+06 3.211247e+06 2.503
15 irregular 7 89 689 49 3 0.190 slower 1 3.211248e+06 3.211252e+06 4.060
15 irregular 7 90 690 70 3 0.524 slower 0 3.211253e+06 3.211258e+06 4.082
15 irregular 7 91 691 49 1 0.485 faster 0 3.211259e+06 3.211262e+06 2.472
15 irregular 7 92 692 72 1.500000e+00 0.248 slower 0 3.211263e+06 3.211266e+06 2.640
15 irregular 7 93 693 47 2 0.220 slower 1 3.211270e+06 3.211274e+06 3.633
15 irregular 7 94 694 73 2.500000e+00 0.113 slower 0 3.211275e+06 3.211280e+06 4.736
15 irregular 7 95 695 46 1.500000e+00 0.123 slower 1 3.211281e+06 3.211284e+06 2.456
15 irregular 7 96 696 73 2.500000e+00 0.501 slower 0 3.211285e+06 3.211289e+06 3.761
15 irregular 7 97 697 46 2.500000e+00 0.217 slower 1 3.211290e+06 3.211293e+06 3.385
15 irregular 7 98 698 74 3 0.238 faster 1 3.211294e+06 3.211299e+06 4.309
15 irregular 7 99 699 47 2 0.378 slower 1 3.211300e+06 3.211303e+06 2.947
15 irregular 7 100 700 73 1 0.130 none 2 3.211303e+06 3.211307e+06 4.000
15 regular 8 1 701 73 1.500000e+00 0.196 none 2 3.211467e+06 3.211471e+06 4.500
15 regular 8 2 702 47 1.500000e+00 0.519 faster 0 3.211472e+06 3.211475e+06 2.681
15 regular 8 3 703 46 1.500000e+00 0.346 slower 1 3.211476e+06 3.211479e+06 2.692
15 regular 8 4 704 47 1.500000e+00 0.579 faster 0 3.211480e+06 3.211483e+06 2.698
15 regular 8 5 705 46 1.500000e+00 0.111 faster 0 3.211483e+06 3.211486e+06 2.565
15 regular 8 6 706 45 1.500000e+00 0.584 faster 0 3.211487e+06 3.211489e+06 2.191
15 regular 8 7 707 44 1.500000e+00 0.379 faster 0 3.211490e+06 3.211493e+06 2.662
15 regular 8 8 708 77 1.500000e+00 0.123 faster 1 3.211494e+06 3.211496e+06 2.430
15 regular 8 9 709 77 1.500000e+00 0.397 faster 1 3.211497e+06 3.211500e+06 2.552
15 regular 8 10 710 44 1.500000e+00 0.527 slower 1 3.211502e+06 3.211504e+06 2.174
15 regular 8 11 711 44 1.500000e+00 0.179 slower 1 3.211505e+06 3.211507e+06 2.471
15 regular 8 12 712 45 1.500000e+00 0.335 faster 0 3.211508e+06 3.211511e+06 2.790
15 regular 8 13 713 76 1.500000e+00 0.274 faster 1 3.211512e+06 3.211514e+06 2.357
15 regular 8 14 714 76 1.500000e+00 0.231 faster 1 3.211515e+06 3.211517e+06 2.054
15 regular 8 15 715 75 1.500000e+00 0.420 faster 1 3.211518e+06 3.211521e+06 2.085
15 regular 8 16 716 75 1.500000e+00 0.341 faster 1 3.211522e+06 3.211524e+06 2.057
15 regular 8 17 717 74 1.500000e+00 0.507 faster 1 3.211525e+06 3.211527e+06 1.945
15 regular 8 18 718 74 1.500000e+00 0.148 faster 1 3.211528e+06 3.211530e+06 2.329
15 regular 8 19 719 47 1.500000e+00 0.258 faster 0 3.211531e+06 3.211534e+06 2.767
15 regular 8 20 720 74 1.500000e+00 0.107 faster 1 3.211535e+06 3.211537e+06 2.728
15 regular 8 21 721 46 1.500000e+00 0.276 slower 1 3.211538e+06 3.211541e+06 2.369
15 regular 8 22 722 73 1.500000e+00 0.136 faster 1 3.211542e+06 3.211544e+06 2.570
15 regular 8 23 723 47 1.500000e+00 0.450 faster 0 3.211545e+06 3.211548e+06 2.266
15 regular 8 24 724 74 1.500000e+00 0.290 faster 1 3.211549e+06 3.211551e+06 2.388
15 regular 8 25 725 47 1.500000e+00 0.111 faster 0 3.211552e+06 3.211555e+06 2.822
15 regular 8 26 726 74 1.500000e+00 0.532 faster 1 3.211556e+06 3.211558e+06 2.407
15 regular 8 27 727 46 1.500000e+00 0.303 slower 1 3.211559e+06 3.211562e+06 2.478
15 regular 8 28 728 73 1.500000e+00 0.393 faster 1 3.211563e+06 3.211565e+06 2.394
15 regular 8 29 729 73 1.500000e+00 0.117 faster 1 3.211566e+06 3.211569e+06 2.504
15 regular 8 30 730 48 1.500000e+00 0.167 slower 1 3.211569e+06 3.211572e+06 2.401
15 regular 8 31 731 72 1.500000e+00 0.435 faster 1 3.211573e+06 3.211575e+06 2.472
15 regular 8 32 732 71 1.500000e+00 0.429 slower 0 3.211577e+06 3.211579e+06 2.786
15 regular 8 33 733 72 1.500000e+00 0.261 faster 1 3.211580e+06 3.211583e+06 2.522
15 regular 8 34 734 72 1.500000e+00 0.278 faster 1 3.211584e+06 3.211586e+06 2.314
15 regular 8 35 735 49 1.500000e+00 0.185 faster 0 3.211587e+06 3.211589e+06 2.286
15 regular 8 36 736 48 1.500000e+00 0.270 slower 1 3.211590e+06 3.211592e+06 2.479
15 regular 8 37 737 72 1.500000e+00 0.309 faster 1 3.211593e+06 3.211596e+06 2.593
15 regular 8 38 738 71 1.500000e+00 0.470 faster 1 3.211597e+06 3.211600e+06 2.384
15 regular 8 39 739 71 1.500000e+00 0.129 faster 1 3.211600e+06 3.211603e+06 2.283
15 regular 8 40 740 70 1.500000e+00 0.111 faster 1 3.211603e+06 3.211606e+06 2.435
15 regular 8 41 741 70 1.500000e+00 0.379 slower 0 3.211607e+06 3.211609e+06 2.457
15 regular 8 42 742 49 1.500000e+00 0.547 faster 0 3.211610e+06 3.211613e+06 2.359
15 regular 8 43 743 72 1.500000e+00 0.451 faster 1 3.211614e+06 3.211617e+06 2.942
15 regular 8 44 744 49 1.500000e+00 0.175 faster 0 3.211618e+06 3.211620e+06 2.783
15 regular 8 45 745 48 1.500000e+00 0.497 slower 1 3.211622e+06 3.211624e+06 2.367
15 regular 8 46 746 72 1.500000e+00 0.141 faster 1 3.211625e+06 3.211627e+06 2.375
15 regular 8 47 747 49 1.500000e+00 0.429 slower 1 3.211628e+06 3.211631e+06 2.793
15 regular 8 48 748 49 1.500000e+00 0.147 faster 0 3.211632e+06 3.211634e+06 2.460
15 regular 8 49 749 48 1.500000e+00 0.364 faster 0 3.211635e+06 3.211638e+06 2.358
15 regular 8 50 750 73 1.500000e+00 0.241 faster 1 3.211639e+06 3.211641e+06 2.407
15 regular 8 51 751 72 1.500000e+00 0.190 faster 1 3.211642e+06 3.211645e+06 2.981
15 regular 8 52 752 72 1.500000e+00 0.575 slower 0 3.211646e+06 3.211649e+06 2.410
15 regular 8 53 753 73 1.500000e+00 0.113 faster 1 3.211650e+06 3.211653e+06 2.838
15 regular 8 54 754 72 1.500000e+00 0.204 faster 1 3.211653e+06 3.211656e+06 2.406
15 regular 8 55 755 48 1.500000e+00 0.286 slower 1 3.211657e+06 3.211659e+06 2.502
15 regular 8 56 756 49 1.500000e+00 0.210 slower 1 3.211660e+06 3.211662e+06 2.140
15 regular 8 57 757 49 1.500000e+00 0.495 slower 1 3.211663e+06 3.211666e+06 2.274
15 regular 8 58 758 50 1.500000e+00 0.228 slower 1 3.211667e+06 3.211669e+06 2.051
15 regular 8 59 759 50 1.500000e+00 0.512 slower 1 3.211670e+06 3.211672e+06 2.333
15 regular 8 60 760 51 1.500000e+00 0.260 slower 1 3.211673e+06 3.211676e+06 2.714
15 regular 8 61 761 69 1.500000e+00 0.393 faster 1 3.211677e+06 3.211679e+06 2.174
15 regular 8 62 762 52 1.500000e+00 0.547 faster 0 3.211681e+06 3.211683e+06 2.252
15 regular 8 63 763 69 1.500000e+00 0.504 faster 1 3.211684e+06 3.211687e+06 2.559
15 regular 8 64 764 69 1.500000e+00 0.389 faster 1 3.211688e+06 3.211690e+06 2.330
15 regular 8 65 765 52 1.500000e+00 0.500 slower 1 3.211691e+06 3.211694e+06 2.440
15 regular 8 66 766 68 1.500000e+00 0.463 faster 1 3.211695e+06 3.211697e+06 2.351
15 regular 8 67 767 53 1.500000e+00 0.581 slower 1 3.211698e+06 3.211701e+06 2.789
15 regular 8 68 768 53 1.500000e+00 0.593 faster 0 3.211702e+06 3.211705e+06 2.458
15 regular 8 69 769 68 1.500000e+00 0.318 faster 1 3.211706e+06 3.211708e+06 2.491
15 regular 8 70 770 53 1.500000e+00 0.233 faster 0 3.211709e+06 3.211712e+06 2.528
15 regular 8 71 771 68 1.500000e+00 0.324 faster 1 3.211713e+06 3.211715e+06 2.681
15 regular 8 72 772 68 1.500000e+00 0.545 faster 1 3.211717e+06 3.211720e+06 2.314
15 regular 8 73 773 67 1.500000e+00 0.228 none 2 3.211721e+06 3.211725e+06 4.499
15 regular 8 74 774 53 1.500000e+00 0.211 faster 0 3.211726e+06 3.211729e+06 3.253
15 regular 8 75 775 52 1.500000e+00 0.279 slower 1 3.211730e+06 3.211733e+06 2.638
15 regular 8 76 776 68 1.500000e+00 0.142 faster 1 3.211733e+06 3.211736e+06 2.553
15 regular 8 77 777 53 1.500000e+00 0.528 slower 1 3.211737e+06 3.211740e+06 2.483
15 regular 8 78 778 53 1.500000e+00 0.413 faster 0 3.211741e+06 3.211743e+06 2.319
15 regular 8 79 779 52 1.500000e+00 0.517 faster 0 3.211744e+06 3.211747e+06 2.441
15 regular 8 80 780 69 1.500000e+00 0.404 slower 0 3.211748e+06 3.211750e+06 2.490
15 regular 8 81 781 70 1.500000e+00 0.325 slower 0 3.211751e+06 3.211754e+06 2.414
15 regular 8 82 782 71 1.500000e+00 0.346 faster 1 3.211755e+06 3.211757e+06 2.640
15 regular 8 83 783 70 1.500000e+00 0.397 faster 1 3.211758e+06 3.211761e+06 2.348
15 regular 8 84 784 70 1.500000e+00 0.344 faster 1 3.211762e+06 3.211764e+06 2.426
15 regular 8 85 785 51 1.500000e+00 0.138 slower 1 3.211765e+06 3.211767e+06 2.389
15 regular 8 86 786 51 1.500000e+00 0.449 slower 1 3.211768e+06 3.211771e+06 2.512
15 regular 8 87 787 52 1.500000e+00 0.111 slower 1 3.211771e+06 3.211774e+06 2.629
15 regular 8 88 788 52 1.500000e+00 0.288 slower 1 3.211775e+06 3.211778e+06 2.775
15 regular 8 89 789 53 1.500000e+00 0.325 slower 1 3.211780e+06 3.211782e+06 2.503
15 regular 8 90 790 53 1.500000e+00 0.584 faster 0 3.211783e+06 3.211786e+06 2.356
15 regular 8 91 791 52 1.500000e+00 0.354 faster 0 3.211787e+06 3.211789e+06 2.450
15 regular 8 92 792 51 1.500000e+00 0.192 slower 1 3.211790e+06 3.211793e+06 2.462
15 regular 8 93 793 68 1.500000e+00 0.481 faster 1 3.211794e+06 3.211796e+06 2.563
15 regular 8 94 794 68 1.500000e+00 0.425 faster 1 3.211798e+06 3.211800e+06 2.317
15 regular 8 95 795 67 1.500000e+00 0.204 slower 0 3.211801e+06 3.211804e+06 2.859
15 regular 8 96 796 68 1.500000e+00 0.123 faster 1 3.211805e+06 3.211807e+06 2.535
15 regular 8 97 797 68 1.500000e+00 0.218 faster 1 3.211808e+06 3.211811e+06 2.657
15 regular 8 98 798 53 1.500000e+00 0.545 slower 1 3.211813e+06 3.211815e+06 2.562
15 regular 8 99 799 53 1.500000e+00 0.389 slower 1 3.211816e+06 3.211819e+06 2.396
15 regular 8 100 800 54 1.500000e+00 0.312 slower 1 3.211820e+06 3.211823e+06 2.452
15 irregular 9 1 801 54 3 0.493 slower 1 3.211884e+06 3.211888e+06 4.025
15 irregular 9 2 802 65 3 0.266 slower 0 3.211889e+06 3.211892e+06 3.874
15 irregular 9 3 803 66 1.500000e+00 0.136 slower 0 3.211894e+06 3.211897e+06 3.254
15 irregular 9 4 804 53 2 0.582 faster 0 3.211898e+06 3.211902e+06 3.341
15 irregular 9 5 805 68 2.500000e+00 0.236 slower 0 3.211902e+06 3.211906e+06 3.154
15 irregular 9 6 806 51 2.500000e+00 0.364 slower 1 3.211907e+06 3.211910e+06 3.200
15 irregular 9 7 807 69 1.500000e+00 0.142 slower 0 3.211911e+06 3.211913e+06 2.691
15 irregular 9 8 808 70 2 0.288 slower 0 3.211914e+06 3.211917e+06 2.742
15 irregular 9 9 809 49 1.500000e+00 0.239 slower 1 3.211918e+06 3.211921e+06 2.746
15 irregular 9 10 810 50 1.500000e+00 0.244 slower 1 3.211922e+06 3.211924e+06 2.436
15 irregular 9 11 811 50 1 0.251 slower 1 3.211925e+06 3.211927e+06 1.773
15 irregular 9 12 812 51 2 0.105 slower 1 3.211928e+06 3.211931e+06 2.619
15 irregular 9 13 813 69 1.500000e+00 0.396 slower 0 3.211932e+06 3.211935e+06 2.779
15 irregular 9 14 814 50 1.500000e+00 0.486 slower 1 3.211936e+06 3.211938e+06 2.139
15 irregular 9 15 815 69 2 0.290 slower 0 3.211939e+06 3.211942e+06 3.015
15 irregular 9 16 816 70 3 0.201 slower 0 3.211943e+06 3.211947e+06 3.986
15 irregular 9 17 817 49 2.500000e+00 0.327 slower 1 3.211949e+06 3.211952e+06 3.180
15 irregular 9 18 818 49 2 0.314 slower 1 3.211953e+06 3.211956e+06 2.762
15 irregular 9 19 819 50 1.500000e+00 0.367 slower 1 3.211957e+06 3.211959e+06 2.292
15 irregular 9 20 820 70 1 0.314 slower 0 3.211960e+06 3.211963e+06 2.447
15 irregular 9 21 821 71 2 0.113 faster 1 3.211964e+06 3.211967e+06 3.390
15 irregular 9 22 822 70 1 0.155 faster 1 3.211968e+06 3.211970e+06 2.426
15 irregular 9 23 823 50 1 0.226 slower 1 3.211972e+06 3.211974e+06 1.969
15 irregular 9 24 824 69 1.500000e+00 0.113 slower 0 3.211975e+06 3.211978e+06 3.118
15 irregular 9 25 825 70 2.500000e+00 0.150 slower 0 3.211980e+06 3.211983e+06 3.493
15 irregular 9 26 826 71 2.500000e+00 0.257 slower 0 3.211985e+06 3.211988e+06 3.449
15 irregular 9 27 827 72 1.500000e+00 0.580 slower 0 3.211989e+06 3.211992e+06 2.435
15 irregular 9 28 828 73 1 0.368 slower 0 3.211993e+06 3.211995e+06 1.982
15 irregular 9 29 829 46 1 0.401 slower 1 3.211996e+06 3.211998e+06 1.993
15 irregular 9 30 830 74 2 0.425 slower 0 3.211999e+06 3.212003e+06 3.243
15 irregular 9 31 831 75 1 0.340 slower 0 3.212004e+06 3.212005e+06 1.809
15 irregular 9 32 832 44 1.500000e+00 0.532 slower 1 3.212007e+06 3.212009e+06 2.297
15 irregular 9 33 833 45 3 0.420 slower 1 3.212010e+06 3.212014e+06 3.714
15 irregular 9 34 834 75 1 0.599 faster 1 3.212015e+06 3.212018e+06 2.659
15 irregular 9 35 835 74 2.500000e+00 0.499 slower 0 3.212019e+06 3.212022e+06 3.285
15 irregular 9 36 836 45 2.500000e+00 0.595 slower 1 3.212023e+06 3.212027e+06 3.180
15 irregular 9 37 837 45 1.500000e+00 0.234 slower 1 3.212028e+06 3.212030e+06 2.310
15 irregular 9 38 838 74 2 0.166 slower 0 3.212031e+06 3.212034e+06 3.247
15 irregular 9 39 839 75 1.500000e+00 0.460 slower 0 3.212036e+06 3.212038e+06 2.490
15 irregular 9 40 840 44 2 0.253 slower 1 3.212039e+06 3.212042e+06 2.896
15 irregular 9 41 841 44 3 0.387 slower 1 3.212043e+06 3.212047e+06 3.826
15 irregular 9 42 842 45 1 0.182 slower 1 3.212048e+06 3.212050e+06 2.509
15 irregular 9 43 843 45 3 0.226 slower 1 3.212051e+06 3.212055e+06 3.913
15 irregular 9 44 844 46 2 0.266 slower 1 3.212056e+06 3.212060e+06 3.765
15 irregular 9 45 845 74 2 0.338 faster 1 3.212062e+06 3.212065e+06 3.039
15 irregular 9 46 846 47 2 0.430 slower 1 3.212066e+06 3.212069e+06 2.638
15 irregular 9 47 847 73 3 0.308 slower 0 3.212070e+06 3.212074e+06 4.048
15 irregular 9 48 848 46 2.500000e+00 0.271 faster 0 3.212075e+06 3.212079e+06 3.938
15 irregular 9 49 849 45 2.500000e+00 0.226 slower 1 3.212080e+06 3.212083e+06 3.313
15 irregular 9 50 850 46 2 0.102 slower 1 3.212085e+06 3.212088e+06 3.139
15 irregular 9 51 851 46 3 0.275 slower 1 3.212089e+06 3.212092e+06 3.808
15 irregular 9 52 852 47 3 0.389 slower 1 3.212094e+06 3.212097e+06 3.709
15 irregular 9 53 853 73 2 0.434 slower 0 3.212098e+06 3.212101e+06 2.849
15 irregular 9 54 854 46 2 0.588 slower 1 3.212103e+06 3.212105e+06 2.786
15 irregular 9 55 855 47 1.500000e+00 0.265 slower 1 3.212106e+06 3.212109e+06 2.197
15 irregular 9 56 856 73 2.500000e+00 0.571 slower 0 3.212110e+06 3.212114e+06 3.462
15 irregular 9 57 857 46 1 0.141 none 2 3.212115e+06 3.212119e+06 4.000
15 irregular 9 58 858 74 3 0.396 slower 0 3.212121e+06 3.212125e+06 3.902
15 irregular 9 59 859 45 2 0.214 slower 1 3.212126e+06 3.212129e+06 2.998
15 irregular 9 60 860 46 1 0.585 slower 1 3.212130e+06 3.212133e+06 2.517
15 irregular 9 61 861 46 2.500000e+00 0.396 slower 1 3.212134e+06 3.212137e+06 3.480
15 irregular 9 62 862 73 1 0.358 faster 1 3.212138e+06 3.212141e+06 2.722
15 irregular 9 63 863 47 2 0.591 slower 1 3.212142e+06 3.212145e+06 2.748
15 irregular 9 64 864 48 3 0.248 slower 1 3.212146e+06 3.212150e+06 3.981
15 irregular 9 65 865 72 1 0.216 slower 0 3.212152e+06 3.212155e+06 2.991
15 irregular 9 66 866 47 3 0.247 slower 1 3.212157e+06 3.212161e+06 3.983
15 irregular 9 67 867 48 2.500000e+00 0.156 slower 1 3.212163e+06 3.212167e+06 3.927
15 irregular 9 68 868 72 3 0.366 slower 0 3.212168e+06 3.212172e+06 4.499
15 irregular 9 69 869 73 2 0.165 slower 0 3.212175e+06 3.212178e+06 3.000
15 irregular 9 70 870 74 1.500000e+00 0.596 faster 1 3.212179e+06 3.212182e+06 2.669
15 irregular 9 71 871 73 2.500000e+00 0.428 slower 0 3.212186e+06 3.212190e+06 3.935
15 irregular 9 72 872 74 1.500000e+00 0.538 faster 1 3.212191e+06 3.212194e+06 2.777
15 irregular 9 73 873 46 3 0.195 slower 1 3.212195e+06 3.212199e+06 3.960
15 irregular 9 74 874 47 3 0.401 slower 1 3.212200e+06 3.212204e+06 3.840
15 irregular 9 75 875 73 1.500000e+00 0.106 faster 1 3.212205e+06 3.212207e+06 2.550
15 irregular 9 76 876 72 3 0.518 faster 1 3.212208e+06 3.212213e+06 4.490
15 irregular 9 77 877 72 2 0.498 slower 0 3.212214e+06 3.212217e+06 3.462
15 irregular 9 78 878 47 1 0.123 faster 0 3.212219e+06 3.212221e+06 2.136
15 irregular 9 79 879 74 2.500000e+00 0.414 slower 0 3.212222e+06 3.212226e+06 3.562
15 irregular 9 80 880 45 1 0.400 faster 0 3.212227e+06 3.212230e+06 2.978
15 irregular 9 81 881 76 1 0.402 faster 1 3.212231e+06 3.212233e+06 2.191
15 irregular 9 82 882 45 1 0.257 slower 1 3.212234e+06 3.212236e+06 1.952
15 irregular 9 83 883 45 1 0.133 slower 1 3.212236e+06 3.212238e+06 1.706
15 irregular 9 84 884 74 1 0.586 slower 0 3.212239e+06 3.212241e+06 1.652
15 irregular 9 85 885 75 3 0.279 slower 0 3.212242e+06 3.212246e+06 4.259
15 irregular 9 86 886 76 2.500000e+00 0.504 faster 1 3.212247e+06 3.212251e+06 3.633
15 irregular 9 87 887 76 1.500000e+00 0.568 faster 1 3.212252e+06 3.212255e+06 2.432
15 irregular 9 88 888 45 2.500000e+00 0.284 faster 0 3.212256e+06 3.212260e+06 3.857
15 irregular 9 89 889 76 3 0.208 slower 0 3.212260e+06 3.212265e+06 4.073
15 irregular 9 90 890 77 1 0.488 faster 1 3.212266e+06 3.212268e+06 2.712
15 irregular 9 91 891 77 3 0.260 faster 1 3.212269e+06 3.212274e+06 4.697
15 irregular 9 92 892 44 2.500000e+00 0.598 slower 1 3.212275e+06 3.212279e+06 3.528
15 irregular 9 93 893 44 2.500000e+00 0.448 slower 1 3.212280e+06 3.212283e+06 3.167
15 irregular 9 94 894 75 2.500000e+00 0.267 slower 0 3.212284e+06 3.212288e+06 4.271
15 irregular 9 95 895 76 2.500000e+00 0.536 faster 1 3.212289e+06 3.212293e+06 3.698
15 irregular 9 96 896 76 2 0.308 faster 1 3.212294e+06 3.212297e+06 3.022
15 irregular 9 97 897 45 1.500000e+00 0.489 faster 0 3.212298e+06 3.212301e+06 2.766
15 irregular 9 98 898 76 3 0.462 slower 0 3.212302e+06 3.212306e+06 4.076
15 irregular 9 99 899 43 1.500000e+00 0.365 slower 1 3.212307e+06 3.212310e+06 2.543
15 irregular 9 100 900 43 1.500000e+00 0.242 slower 1 3.212311e+06 3.212314e+06 2.911
15 regular 10 1 901 76 3 0.164 faster 1 3.212372e+06 3.212376e+06 3.721
15 regular 10 2 902 76 3 0.560 faster 1 3.212378e+06 3.212381e+06 3.792
15 regular 10 3 903 45 3 0.309 slower 1 3.212382e+06 3.212386e+06 3.756
15 regular 10 4 904 45 3 0.505 slower 1 3.212387e+06 3.212391e+06 3.976
15 regular 10 5 905 74 3 0.558 faster 1 3.212393e+06 3.212397e+06 4.069
15 regular 10 6 906 74 3 0.263 faster 1 3.212398e+06 3.212401e+06 3.825
15 regular 10 7 907 73 3 0.156 faster 1 3.212402e+06 3.212406e+06 3.745
15 regular 10 8 908 73 3 0.463 faster 1 3.212407e+06 3.212412e+06 4.736
15 regular 10 9 909 48 3 0.143 faster 0 3.212413e+06 3.212417e+06 3.938
15 regular 10 10 910 47 3 0.391 slower 1 3.212418e+06 3.212422e+06 4.383
15 regular 10 11 911 73 3 0.473 slower 0 3.212424e+06 3.212428e+06 4.480
15 regular 10 12 912 74 3 0.468 faster 1 3.212429e+06 3.212433e+06 4.251
15 regular 10 13 913 47 3 0.554 slower 1 3.212435e+06 3.212439e+06 4.047
15 regular 10 14 914 47 3 0.165 faster 0 3.212440e+06 3.212444e+06 4.249
15 regular 10 15 915 74 3 0.231 slower 0 3.212445e+06 3.212449e+06 4.548
15 regular 10 16 916 75 3 0.317 slower 0 3.212450e+06 3.212455e+06 4.326
15 regular 10 17 917 44 3 0.523 slower 1 3.212456e+06 3.212460e+06 4.306
15 regular 10 18 918 45 3 0.261 slower 1 3.212461e+06 3.212465e+06 4.112
15 regular 10 19 919 75 3 0.493 slower 0 3.212466e+06 3.212470e+06 4.082
15 regular 10 20 920 76 3 0.571 slower 0 3.212471e+06 3.212476e+06 4.570
15 regular 10 21 921 43 3 0.505 slower 1 3.212477e+06 3.212481e+06 4.194
15 regular 10 22 922 44 3 0.528 slower 1 3.212483e+06 3.212487e+06 4.475
15 regular 10 23 923 76 3 0.478 faster 1 3.212488e+06 3.212492e+06 3.837
15 regular 10 24 924 75 3 0.337 faster 1 3.212493e+06 3.212498e+06 4.613
15 regular 10 25 925 75 3 0.457 faster 1 3.212499e+06 3.212503e+06 3.999
15 regular 10 26 926 74 3 0.477 faster 1 3.212504e+06 3.212508e+06 3.970
15 regular 10 27 927 46 3 0.405 slower 1 3.212509e+06 3.212513e+06 3.799
15 regular 10 28 928 73 3 0.164 slower 0 3.212514e+06 3.212518e+06 4.091
15 regular 10 29 929 74 3 0.280 none 2 3.212519e+06 3.212525e+06 5.999
15 regular 10 30 930 74 3 0.252 faster 1 3.212526e+06 3.212530e+06 3.792
15 regular 10 31 931 74 3 0.541 slower 0 3.212532e+06 3.212536e+06 4.111
15 regular 10 32 932 75 3 0.237 faster 1 3.212537e+06 3.212541e+06 4.555
15 regular 10 33 933 46 3 0.198 slower 1 3.212542e+06 3.212546e+06 4.136
15 regular 10 34 934 46 3 0.385 slower 1 3.212548e+06 3.212551e+06 3.849
15 regular 10 35 935 73 3 0.558 slower 0 3.212553e+06 3.212557e+06 4.193
15 regular 10 36 936 74 3 0.473 slower 0 3.212558e+06 3.212562e+06 4.159
15 regular 10 37 937 75 3 0.316 slower 0 3.212563e+06 3.212567e+06 4.236
15 regular 10 38 938 44 3 0.245 slower 1 3.212568e+06 3.212573e+06 4.373
15 regular 10 39 939 44 3 0.323 faster 0 3.212573e+06 3.212578e+06 4.151
15 regular 10 40 940 43 3 0.403 slower 1 3.212579e+06 3.212583e+06 4.123
15 regular 10 41 941 44 3 0.276 slower 1 3.212584e+06 3.212588e+06 4.613
15 regular 10 42 942 76 3 0.438 faster 1 3.212590e+06 3.212594e+06 4.074
15 regular 10 43 943 75 3 0.201 faster 1 3.212594e+06 3.212598e+06 4.028
15 regular 10 44 944 75 3 0.152 faster 1 3.212599e+06 3.212604e+06 4.217
15 regular 10 45 945 74 3 0.187 slower 0 3.212605e+06 3.212609e+06 4.071
15 regular 10 46 946 45 3 0.422 slower 1 3.212610e+06 3.212614e+06 3.862
15 regular 10 47 947 45 3 0.545 slower 1 3.212615e+06 3.212619e+06 3.967
15 regular 10 48 948 74 3 0.322 slower 0 3.212620e+06 3.212624e+06 4.495
15 regular 10 49 949 75 3 0.579 slower 0 3.212625e+06 3.212630e+06 4.294
15 regular 10 50 950 44 3 0.327 slower 1 3.212631e+06 3.212635e+06 4.032
15 regular 10 51 951 44 3 0.411 slower 1 3.212636e+06 3.212639e+06 3.740
15 regular 10 52 952 45 3 0.291 slower 1 3.212640e+06 3.212644e+06 3.670
15 regular 10 53 953 75 3 0.389 slower 0 3.212645e+06 3.212649e+06 4.406
15 regular 10 54 954 44 3 0.300 slower 1 3.212650e+06 3.212655e+06 4.153
15 regular 10 55 955 45 3 0.170 slower 1 3.212656e+06 3.212660e+06 3.766
15 regular 10 56 956 45 3 0.457 none 2 3.212661e+06 3.212667e+06 6.000
15 regular 10 57 957 45 3 0.514 slower 1 3.212668e+06 3.212672e+06 3.929
15 regular 10 58 958 46 3 0.498 slower 1 3.212673e+06 3.212677e+06 3.680
15 regular 10 59 959 46 3 0.218 faster 0 3.212678e+06 3.212682e+06 4.374
15 regular 10 60 960 45 3 0.424 slower 1 3.212683e+06 3.212687e+06 4.005
15 regular 10 61 961 74 3 0.114 faster 1 3.212688e+06 3.212692e+06 3.774
15 regular 10 62 962 46 3 0.346 none 2 3.212693e+06 3.212699e+06 6.000
15 regular 10 63 963 74 3 0.180 faster 1 3.212699e+06 3.212703e+06 3.989
15 regular 10 64 964 73 3 0.331 faster 1 3.212704e+06 3.212708e+06 4.037
15 regular 10 65 965 47 3 0.408 slower 1 3.212709e+06 3.212713e+06 3.968
15 regular 10 66 966 72 3 0.220 faster 1 3.212714e+06 3.212718e+06 4.070
15 regular 10 67 967 48 3 0.171 slower 1 3.212719e+06 3.212723e+06 4.164
15 regular 10 68 968 71 3 0.120 slower 0 3.212724e+06 3.212728e+06 3.922
15 regular 10 69 969 48 3 0.516 faster 0 3.212729e+06 3.212734e+06 4.409
15 regular 10 70 970 73 3 0.239 slower 0 3.212734e+06 3.212739e+06 4.272
15 regular 10 71 971 46 3 0.176 slower 1 3.212740e+06 3.212744e+06 3.850
15 regular 10 72 972 74 3 0.350 slower 0 3.212745e+06 3.212749e+06 3.854
15 regular 10 73 973 75 3 0.392 slower 0 3.212750e+06 3.212754e+06 3.751
15 regular 10 74 974 76 3 0.143 slower 0 3.212755e+06 3.212758e+06 3.890
15 regular 10 75 975 43 3 0.588 slower 1 3.212760e+06 3.212763e+06 3.757
15 regular 10 76 976 44 3 0.406 none 2 3.212765e+06 3.212771e+06 5.999
15 regular 10 77 977 76 3 0.571 faster 1 3.212772e+06 3.212776e+06 4.439
15 regular 10 78 978 44 3 0.226 slower 1 3.212777e+06 3.212781e+06 3.875
15 regular 10 79 979 45 3 0.430 slower 1 3.212782e+06 3.212786e+06 4.106
15 regular 10 80 980 75 3 0.305 faster 1 3.212787e+06 3.212791e+06 4.090
15 regular 10 81 981 74 3 0.253 none 2 3.212792e+06 3.212798e+06 5.999
15 regular 10 82 982 74 3 0.305 slower 0 3.212799e+06 3.212803e+06 3.933
15 regular 10 83 983 45 3 0.327 slower 1 3.212804e+06 3.212808e+06 3.690
15 regular 10 84 984 45 3 0.354 slower 1 3.212809e+06 3.212812e+06 3.910
15 regular 10 85 985 74 3 0.344 faster 1 3.212813e+06 3.212818e+06 4.409
15 regular 10 86 986 74 3 0.147 none 2 3.212819e+06 3.212825e+06 5.999
15 regular 10 87 987 46 3 0.416 slower 1 3.212826e+06 3.212830e+06 3.907
15 regular 10 88 988 47 3 0.265 slower 1 3.212831e+06 3.212834e+06 3.889
15 regular 10 89 989 47 3 0.177 faster 0 3.212835e+06 3.212839e+06 4.002
15 regular 10 90 990 74 3 0.196 faster 1 3.212840e+06 3.212844e+06 3.818
15 regular 10 91 991 47 3 0.488 slower 1 3.212845e+06 3.212849e+06 4.316
15 regular 10 92 992 73 3 0.367 slower 0 3.212851e+06 3.212855e+06 4.046
15 regular 10 93 993 46 3 0.427 none 2 3.212856e+06 3.212862e+06 5.999
15 regular 10 94 994 46 3 0.388 slower 1 3.212866e+06 3.212870e+06 3.886
15 regular 10 95 995 73 3 0.335 none 2 3.212871e+06 3.212877e+06 6.000
15 regular 10 96 996 47 3 0.427 slower 1 3.212878e+06 3.212882e+06 3.760
15 regular 10 97 997 47 3 0.413 none 2 3.212883e+06 3.212889e+06 6.000
15 regular 10 98 998 73 3 0.166 faster 1 3.212890e+06 3.212895e+06 4.066
15 regular 10 99 999 48 3 0.320 slower 1 3.212895e+06 3.212899e+06 3.931
15 regular 10 100 1000 48 3 0.588 slower 1 3.212901e+06 3.212905e+06 4.640
