subNo condition blockNo trialNo trialID currentFrequency cueTargetInterval randomPreCueInterval response responseAccuracy startTime responseTime RT
21 irregular 1 1 1 66 2 0.278 faster 1 3.707419e+06 3.707422e+06 2.701
21 irregular 1 2 2 54 1.500000e+00 0.408 faster 0 3.707423e+06 3.707426e+06 2.555
21 irregular 1 3 3 68 2.500000e+00 0.224 faster 1 3.707427e+06 3.707431e+06 3.589
21 irregular 1 4 4 54 3 0.345 slower 1 3.707432e+06 3.707436e+06 3.797
21 irregular 1 5 5 66 3 0.382 faster 1 3.707438e+06 3.707442e+06 4.554
21 irregular 1 6 6 64 1.500000e+00 0.306 slower 0 3.707443e+06 3.707446e+06 2.381
21 irregular 1 7 7 66 1.500000e+00 0.583 slower 0 3.707447e+06 3.707450e+06 2.942
21 irregular 1 8 8 68 1 0.386 slower 0 3.707451e+06 3.707454e+06 2.963
21 irregular 1 9 9 50 3 0.309 slower 1 3.707455e+06 3.707459e+06 4.009
21 irregular 1 10 10 50 1 0.497 slower 1 3.707461e+06 3.707463e+06 1.819
21 irregular 1 11 11 52 3 0.488 slower 1 3.707465e+06 3.707470e+06 5.270
21 irregular 1 12 12 68 2.500000e+00 0.463 faster 1 3.707472e+06 3.707476e+06 3.774
21 irregular 1 13 13 53 2.500000e+00 0.398 faster 0 3.707480e+06 3.707483e+06 3.269
21 irregular 1 14 14 52 3 0.294 slower 1 3.707487e+06 3.707491e+06 3.713
21 irregular 1 15 15 68 3 0.460 slower 0 3.707494e+06 3.707498e+06 3.944
21 irregular 1 16 16 69 2 0.597 faster 1 3.707499e+06 3.707502e+06 3.224
21 irregular 1 17 17 52 1 0.229 slower 1 3.707504e+06 3.707506e+06 1.938
21 irregular 1 18 18 52 2.500000e+00 0.257 faster 0 3.707507e+06 3.707511e+06 3.616
21 irregular 1 19 19 69 2.500000e+00 0.142 slower 0 3.707511e+06 3.707515e+06 3.522
21 irregular 1 20 20 70 3 0.246 faster 1 3.707516e+06 3.707520e+06 3.817
21 irregular 1 21 21 69 1 0.294 slower 0 3.707522e+06 3.707525e+06 3.514
21 irregular 1 22 22 70 1.500000e+00 0.390 slower 0 3.707526e+06 3.707529e+06 2.522
21 irregular 1 23 23 71 2 0.546 faster 1 3.707530e+06 3.707533e+06 2.674
21 irregular 1 24 24 71 2 0.366 faster 1 3.707534e+06 3.707537e+06 2.662
21 irregular 1 25 25 70 1 0.500 slower 0 3.707539e+06 3.707542e+06 2.689
21 irregular 1 26 26 71 1.500000e+00 0.410 faster 1 3.707543e+06 3.707545e+06 2.192
21 irregular 1 27 27 49 3 0.428 slower 1 3.707546e+06 3.707550e+06 3.672
21 irregular 1 28 28 50 2 0.105 slower 1 3.707551e+06 3.707554e+06 2.677
21 irregular 1 29 29 50 2 0.583 slower 1 3.707556e+06 3.707558e+06 2.758
21 irregular 1 30 30 51 2 0.322 slower 1 3.707560e+06 3.707563e+06 3.082
21 irregular 1 31 31 69 2 0.250 faster 1 3.707564e+06 3.707568e+06 3.788
21 irregular 1 32 32 52 1.500000e+00 0.351 faster 0 3.707570e+06 3.707573e+06 2.773
21 irregular 1 33 33 51 3 0.540 slower 1 3.707574e+06 3.707578e+06 3.679
21 irregular 1 34 34 69 2.500000e+00 0.454 slower 0 3.707580e+06 3.707584e+06 4.045
21 irregular 1 35 35 70 2 0.460 faster 1 3.707586e+06 3.707589e+06 2.557
21 irregular 1 36 36 51 2 0.185 slower 1 3.707591e+06 3.707594e+06 3.258
21 irregular 1 37 37 69 1 0.228 faster 1 3.707595e+06 3.707597e+06 1.791
21 irregular 1 38 38 68 2 0.359 faster 1 3.707598e+06 3.707601e+06 2.590
21 irregular 1 39 39 68 1 0.173 faster 1 3.707602e+06 3.707604e+06 1.842
21 irregular 1 40 40 53 2 0.102 faster 0 3.707606e+06 3.707608e+06 2.655
21 irregular 1 41 41 52 2.500000e+00 0.465 slower 1 3.707610e+06 3.707613e+06 3.283
21 irregular 1 42 42 68 1.500000e+00 0.140 slower 0 3.707615e+06 3.707618e+06 3.582
21 irregular 1 43 43 51 2 0.414 slower 1 3.707620e+06 3.707623e+06 2.586
21 irregular 1 44 44 68 1 0.395 faster 1 3.707624e+06 3.707626e+06 1.856
21 irregular 1 45 45 52 3 0.595 slower 1 3.707628e+06 3.707632e+06 4.402
21 irregular 1 46 46 53 2 0.314 faster 0 3.707634e+06 3.707637e+06 2.815
21 irregular 1 47 47 68 3 0.450 faster 1 3.707638e+06 3.707642e+06 3.571
21 irregular 1 48 48 52 1 0.364 slower 1 3.707643e+06 3.707645e+06 1.847
21 irregular 1 49 49 53 1.500000e+00 0.314 slower 1 3.707646e+06 3.707648e+06 2.127
21 irregular 1 50 50 67 2.500000e+00 0.416 faster 1 3.707650e+06 3.707653e+06 3.540
21 irregular 1 51 51 54 2.500000e+00 0.181 slower 1 3.707654e+06 3.707658e+06 3.531
21 irregular 1 52 52 66 3 0.311 slower 0 3.707659e+06 3.707663e+06 3.891
21 irregular 1 53 53 67 1.500000e+00 0.486 slower 0 3.707665e+06 3.707667e+06 2.148
21 irregular 1 54 54 52 1.500000e+00 0.592 slower 1 3.707669e+06 3.707671e+06 2.047
21 irregular 1 55 55 67 2 0.224 slower 0 3.707672e+06 3.707675e+06 3.211
21 irregular 1 56 56 52 1 0.151 slower 1 3.707676e+06 3.707678e+06 1.772
21 irregular 1 57 57 52 2 0.503 faster 0 3.707680e+06 3.707682e+06 2.564
21 irregular 1 58 58 51 1.500000e+00 0.128 slower 1 3.707683e+06 3.707686e+06 2.562
21 irregular 1 59 59 52 3 0.262 slower 1 3.707687e+06 3.707691e+06 4.203
21 irregular 1 60 60 52 3 0.370 slower 1 3.707693e+06 3.707697e+06 4.095
21 irregular 1 61 61 53 1 0.228 faster 0 3.707699e+06 3.707701e+06 1.868
21 irregular 1 62 62 68 1.500000e+00 0.492 faster 1 3.707703e+06 3.707706e+06 3.405
21 irregular 1 63 63 68 2 0.243 faster 1 3.707707e+06 3.707710e+06 2.606
21 irregular 1 64 64 53 1 0.272 faster 0 3.707712e+06 3.707715e+06 3.450
21 irregular 1 65 65 68 1 0.181 faster 1 3.707716e+06 3.707718e+06 1.874
21 irregular 1 66 66 68 2 0.414 slower 0 3.707720e+06 3.707725e+06 4.811
21 irregular 1 67 67 69 2.500000e+00 0.588 faster 1 3.707727e+06 3.707731e+06 4.384
21 irregular 1 68 68 52 1.500000e+00 0.187 faster 0 3.707733e+06 3.707736e+06 3.061
21 irregular 1 69 69 51 2.500000e+00 0.290 slower 1 3.707737e+06 3.707740e+06 3.194
21 irregular 1 70 70 51 2.500000e+00 0.322 slower 1 3.707743e+06 3.707746e+06 3.636
21 irregular 1 71 71 52 2.500000e+00 0.508 faster 0 3.707748e+06 3.707752e+06 3.315
21 irregular 1 72 72 51 2.500000e+00 0.242 slower 1 3.707754e+06 3.707757e+06 3.374
21 irregular 1 73 73 69 1.500000e+00 0.352 faster 1 3.707759e+06 3.707761e+06 2.209
21 irregular 1 74 74 68 3 0.156 faster 1 3.707763e+06 3.707767e+06 3.521
21 irregular 1 75 75 52 1.500000e+00 0.476 faster 0 3.707769e+06 3.707771e+06 2.275
21 irregular 1 76 76 51 1 0.273 slower 1 3.707773e+06 3.707775e+06 1.947
21 irregular 1 77 77 68 1.500000e+00 0.318 faster 1 3.707776e+06 3.707778e+06 2.373
21 irregular 1 78 78 68 3 0.416 slower 0 3.707780e+06 3.707784e+06 4.177
21 irregular 1 79 79 51 1.500000e+00 0.132 slower 1 3.707785e+06 3.707788e+06 2.410
21 irregular 1 80 80 68 1 0.131 slower 0 3.707789e+06 3.707792e+06 3.218
21 irregular 1 81 81 69 3 0.246 slower 0 3.707793e+06 3.707797e+06 3.951
21 irregular 1 82 82 70 3 0.499 faster 1 3.707799e+06 3.707802e+06 3.666
21 irregular 1 83 83 50 2.500000e+00 0.455 slower 1 3.707804e+06 3.707807e+06 3.344
21 irregular 1 84 84 51 2 0.588 slower 1 3.707809e+06 3.707812e+06 2.783
21 irregular 1 85 85 51 2 0.202 faster 0 3.707814e+06 3.707816e+06 2.643
21 irregular 1 86 86 70 2.500000e+00 0.209 faster 1 3.707818e+06 3.707821e+06 3.321
21 irregular 1 87 87 51 1 0.113 slower 1 3.707823e+06 3.707824e+06 1.765
21 irregular 1 88 88 69 1 0.379 faster 1 3.707825e+06 3.707827e+06 1.815
21 irregular 1 89 89 52 1.500000e+00 0.384 slower 1 3.707829e+06 3.707832e+06 2.179
21 irregular 1 90 90 52 1 0.293 slower 1 3.707834e+06 3.707835e+06 1.580
21 irregular 1 91 91 67 1.500000e+00 0.479 slower 0 3.707837e+06 3.707840e+06 3.143
21 irregular 1 92 92 68 2.500000e+00 0.423 faster 1 3.707842e+06 3.707846e+06 3.191
21 irregular 1 93 93 68 2.500000e+00 0.491 faster 1 3.707847e+06 3.707850e+06 3.195
21 irregular 1 94 94 67 3 0.149 faster 1 3.707852e+06 3.707857e+06 5.544
21 irregular 1 95 95 53 1 0.592 slower 1 3.707860e+06 3.707862e+06 1.809
21 irregular 1 96 96 54 3 0.483 slower 1 3.707863e+06 3.707868e+06 4.960
21 irregular 1 97 97 66 2.500000e+00 0.232 faster 1 3.707870e+06 3.707873e+06 3.230
21 irregular 1 98 98 55 1.500000e+00 0.366 slower 1 3.707875e+06 3.707879e+06 3.871
21 irregular 1 99 99 55 2.500000e+00 0.238 faster 0 3.707881e+06 3.707884e+06 3.563
21 irregular 1 100 100 66 1 0.283 faster 1 3.707886e+06 3.707888e+06 2.557
21 regular 2 1 101 55 2.500000e+00 0.326 faster 0 3.707923e+06 3.707926e+06 3.289
21 regular 2 2 102 54 2.500000e+00 0.207 faster 0 3.707928e+06 3.707931e+06 3.150
21 regular 2 3 103 67 2.500000e+00 0.561 faster 1 3.707932e+06 3.707935e+06 2.990
21 regular 2 4 104 67 2.500000e+00 0.399 faster 1 3.707937e+06 3.707940e+06 3.097
21 regular 2 5 105 54 2.500000e+00 0.486 faster 0 3.707942e+06 3.707945e+06 2.998
21 regular 2 6 106 53 2.500000e+00 0.460 faster 0 3.707947e+06 3.707950e+06 3.297
21 regular 2 7 107 52 2.500000e+00 0.274 faster 0 3.707951e+06 3.707955e+06 3.312
21 regular 2 8 108 51 2.500000e+00 0.109 faster 0 3.707956e+06 3.707960e+06 3.430
21 regular 2 9 109 70 2.500000e+00 0.529 faster 1 3.707962e+06 3.707965e+06 3.242
21 regular 2 10 110 70 2.500000e+00 0.139 faster 1 3.707966e+06 3.707970e+06 3.365
21 regular 2 11 111 51 2.500000e+00 0.165 slower 1 3.707971e+06 3.707975e+06 3.644
21 regular 2 12 112 51 2.500000e+00 0.300 slower 1 3.707976e+06 3.707980e+06 3.412
21 regular 2 13 113 68 2.500000e+00 0.340 faster 1 3.707982e+06 3.707986e+06 3.341
21 regular 2 14 114 68 2.500000e+00 0.305 faster 1 3.707987e+06 3.707990e+06 3.083
21 regular 2 15 115 53 2.500000e+00 0.216 slower 1 3.707991e+06 3.707995e+06 3.448
21 regular 2 16 116 67 2.500000e+00 0.465 faster 1 3.707997e+06 3.708000e+06 3.197
21 regular 2 17 117 66 2.500000e+00 0.423 faster 1 3.708001e+06 3.708004e+06 3.094
21 regular 2 18 118 54 2.500000e+00 0.294 slower 1 3.708006e+06 3.708009e+06 3.443
21 regular 2 19 119 65 2.500000e+00 0.483 faster 1 3.708011e+06 3.708014e+06 3.380
21 regular 2 20 120 55 2.500000e+00 0.417 slower 1 3.708016e+06 3.708020e+06 3.223
21 regular 2 21 121 64 2.500000e+00 0.225 faster 1 3.708022e+06 3.708025e+06 3.286
21 regular 2 22 122 64 2.500000e+00 0.313 faster 1 3.708027e+06 3.708031e+06 3.488
21 regular 2 23 123 63 2.500000e+00 0.281 faster 1 3.708033e+06 3.708036e+06 3.335
21 regular 2 24 124 57 2.500000e+00 0.377 slower 1 3.708037e+06 3.708041e+06 3.309
21 regular 2 25 125 58 2.500000e+00 0.376 slower 1 3.708042e+06 3.708045e+06 3.187
21 regular 2 26 126 58 2.500000e+00 0.294 slower 1 3.708047e+06 3.708051e+06 4.218
21 regular 2 27 127 59 2.500000e+00 0.105 faster 0 3.708052e+06 3.708056e+06 3.198
21 regular 2 28 128 58 2.500000e+00 0.139 slower 1 3.708058e+06 3.708061e+06 3.516
21 regular 2 29 129 62 2.500000e+00 0.587 faster 1 3.708064e+06 3.708067e+06 3.156
21 regular 2 30 130 59 2.500000e+00 0.488 slower 1 3.708069e+06 3.708072e+06 3.674
21 regular 2 31 131 59 2.500000e+00 0.582 faster 0 3.708074e+06 3.708077e+06 3.401
21 regular 2 32 132 58 2.500000e+00 0.380 faster 0 3.708079e+06 3.708082e+06 3.201
21 regular 2 33 133 63 2.500000e+00 0.360 slower 0 3.708087e+06 3.708091e+06 4.321
21 regular 2 34 134 56 2.500000e+00 0.561 slower 1 3.708093e+06 3.708098e+06 4.609
21 regular 2 35 135 57 2.500000e+00 0.263 faster 0 3.708100e+06 3.708103e+06 3.937
21 regular 2 36 136 56 2.500000e+00 0.292 faster 0 3.708105e+06 3.708109e+06 3.749
21 regular 2 37 137 55 2.500000e+00 0.591 faster 0 3.708113e+06 3.708116e+06 3.678
21 regular 2 38 138 66 2.500000e+00 0.477 faster 1 3.708118e+06 3.708122e+06 3.304
21 regular 2 39 139 66 2.500000e+00 0.595 faster 1 3.708123e+06 3.708127e+06 3.317
21 regular 2 40 140 55 2.500000e+00 0.385 slower 1 3.708128e+06 3.708131e+06 3.254
21 regular 2 41 141 55 2.500000e+00 0.333 slower 1 3.708133e+06 3.708136e+06 3.457
21 regular 2 42 142 56 2.500000e+00 0.241 faster 0 3.708137e+06 3.708141e+06 3.912
21 regular 2 43 143 65 2.500000e+00 0.106 slower 0 3.708142e+06 3.708145e+06 3.208
21 regular 2 44 144 66 2.500000e+00 0.250 faster 1 3.708146e+06 3.708150e+06 3.506
21 regular 2 45 145 54 2.500000e+00 0.111 slower 1 3.708151e+06 3.708154e+06 3.177
21 regular 2 46 146 65 2.500000e+00 0.425 slower 0 3.708156e+06 3.708159e+06 3.246
21 regular 2 47 147 54 2.500000e+00 0.526 slower 1 3.708161e+06 3.708164e+06 3.191
21 regular 2 48 148 66 2.500000e+00 0.506 faster 1 3.708165e+06 3.708169e+06 3.373
21 regular 2 49 149 65 2.500000e+00 0.175 faster 1 3.708170e+06 3.708173e+06 3.230
21 regular 2 50 150 65 2.500000e+00 0.430 slower 0 3.708175e+06 3.708178e+06 3.387
21 regular 2 51 151 54 2.500000e+00 0.306 faster 0 3.708179e+06 3.708182e+06 3.085
21 regular 2 52 152 53 2.500000e+00 0.389 slower 1 3.708185e+06 3.708188e+06 3.111
21 regular 2 53 153 54 2.500000e+00 0.311 slower 1 3.708190e+06 3.708193e+06 3.230
21 regular 2 54 154 54 2.500000e+00 0.258 slower 1 3.708194e+06 3.708198e+06 3.323
21 regular 2 55 155 55 2.500000e+00 0.180 faster 0 3.708199e+06 3.708203e+06 3.630
21 regular 2 56 156 66 2.500000e+00 0.557 faster 1 3.708205e+06 3.708209e+06 3.653
21 regular 2 57 157 66 2.500000e+00 0.145 faster 1 3.708211e+06 3.708214e+06 3.205
21 regular 2 58 158 55 2.500000e+00 0.343 faster 0 3.708217e+06 3.708220e+06 3.211
21 regular 2 59 159 54 2.500000e+00 0.186 faster 0 3.708222e+06 3.708225e+06 3.197
21 regular 2 60 160 67 2.500000e+00 0.195 faster 1 3.708227e+06 3.708230e+06 3.222
21 regular 2 61 161 67 2.500000e+00 0.532 faster 1 3.708232e+06 3.708236e+06 3.183
21 regular 2 62 162 66 2.500000e+00 0.150 faster 1 3.708238e+06 3.708242e+06 3.552
21 regular 2 63 163 66 2.500000e+00 0.195 slower 0 3.708243e+06 3.708247e+06 3.888
21 regular 2 64 164 67 2.500000e+00 0.451 faster 1 3.708249e+06 3.708253e+06 3.691
21 regular 2 65 165 54 2.500000e+00 0.520 faster 0 3.708255e+06 3.708259e+06 3.446
21 regular 2 66 166 53 2.500000e+00 0.557 faster 0 3.708262e+06 3.708265e+06 3.150
21 regular 2 67 167 52 2.500000e+00 0.405 slower 1 3.708267e+06 3.708271e+06 3.716
21 regular 2 68 168 68 2.500000e+00 0.251 faster 1 3.708273e+06 3.708276e+06 3.104
21 regular 2 69 169 67 2.500000e+00 0.544 faster 1 3.708278e+06 3.708281e+06 3.090
21 regular 2 70 170 53 2.500000e+00 0.529 slower 1 3.708283e+06 3.708287e+06 3.453
21 regular 2 71 171 66 2.500000e+00 0.249 faster 1 3.708288e+06 3.708292e+06 3.246
21 regular 2 72 172 54 2.500000e+00 0.212 slower 1 3.708293e+06 3.708297e+06 3.821
21 regular 2 73 173 65 2.500000e+00 0.585 faster 1 3.708299e+06 3.708302e+06 3.069
21 regular 2 74 174 65 2.500000e+00 0.266 faster 1 3.708304e+06 3.708307e+06 3.172
21 regular 2 75 175 56 2.500000e+00 0.279 faster 0 3.708309e+06 3.708313e+06 3.905
21 regular 2 76 176 65 2.500000e+00 0.258 faster 1 3.708318e+06 3.708321e+06 3.551
21 regular 2 77 177 65 2.500000e+00 0.143 faster 1 3.708323e+06 3.708326e+06 3.406
21 regular 2 78 178 64 2.500000e+00 0.258 slower 0 3.708327e+06 3.708331e+06 3.991
21 regular 2 79 179 65 2.500000e+00 0.505 faster 1 3.708333e+06 3.708336e+06 3.126
21 regular 2 80 180 55 2.500000e+00 0.214 slower 1 3.708337e+06 3.708341e+06 4.140
21 regular 2 81 181 56 2.500000e+00 0.548 slower 1 3.708344e+06 3.708347e+06 3.308
21 regular 2 82 182 64 2.500000e+00 0.230 faster 1 3.708348e+06 3.708352e+06 3.787
21 regular 2 83 183 57 2.500000e+00 0.266 faster 0 3.708353e+06 3.708357e+06 3.241
21 regular 2 84 184 64 2.500000e+00 0.345 faster 1 3.708358e+06 3.708362e+06 3.515
21 regular 2 85 185 64 2.500000e+00 0.313 faster 1 3.708363e+06 3.708366e+06 3.322
21 regular 2 86 186 63 2.500000e+00 0.272 faster 1 3.708368e+06 3.708371e+06 3.279
21 regular 2 87 187 57 2.500000e+00 0.223 faster 0 3.708372e+06 3.708376e+06 3.267
21 regular 2 88 188 64 2.500000e+00 0.580 slower 0 3.708377e+06 3.708381e+06 3.823
21 regular 2 89 189 55 2.500000e+00 0.187 faster 0 3.708382e+06 3.708386e+06 3.615
21 regular 2 90 190 54 2.500000e+00 0.202 slower 1 3.708387e+06 3.708391e+06 4.124
21 regular 2 91 191 65 2.500000e+00 0.534 faster 1 3.708394e+06 3.708397e+06 3.151
21 regular 2 92 192 55 2.500000e+00 0.531 faster 0 3.708399e+06 3.708402e+06 3.122
21 regular 2 93 193 66 2.500000e+00 0.232 faster 1 3.708404e+06 3.708407e+06 3.196
21 regular 2 94 194 65 2.500000e+00 0.571 faster 1 3.708409e+06 3.708412e+06 3.092
21 regular 2 95 195 65 2.500000e+00 0.224 faster 1 3.708413e+06 3.708416e+06 3.040
21 regular 2 96 196 64 2.500000e+00 0.165 faster 1 3.708418e+06 3.708422e+06 3.370
21 regular 2 97 197 64 2.500000e+00 0.207 faster 1 3.708422e+06 3.708426e+06 3.141
21 regular 2 98 198 57 2.500000e+00 0.444 faster 0 3.708428e+06 3.708431e+06 3.332
21 regular 2 99 199 64 2.500000e+00 0.426 faster 1 3.708433e+06 3.708437e+06 3.365
21 regular 2 100 200 56 2.500000e+00 0.558 faster 0 3.708438e+06 3.708442e+06 3.219
21 irregular 3 1 201 65 3 0.388 slower 0 3.708462e+06 3.708466e+06 3.984
21 irregular 3 2 202 66 2.500000e+00 0.516 slower 0 3.708470e+06 3.708473e+06 3.279
21 irregular 3 3 203 53 2.500000e+00 0.533 slower 1 3.708476e+06 3.708479e+06 3.199
21 irregular 3 4 204 54 2 0.304 slower 1 3.708481e+06 3.708483e+06 2.689
21 irregular 3 5 205 66 1.500000e+00 0.420 slower 0 3.708486e+06 3.708488e+06 2.444
21 irregular 3 6 206 53 3 0.449 faster 0 3.708492e+06 3.708496e+06 4.047
21 irregular 3 7 207 52 1.500000e+00 0.226 slower 1 3.708502e+06 3.708505e+06 2.340
21 irregular 3 8 208 67 1 0.537 faster 1 3.708508e+06 3.708510e+06 1.850
21 irregular 3 9 209 53 2 0.134 slower 1 3.708515e+06 3.708518e+06 2.894
21 irregular 3 10 210 66 2.500000e+00 0.226 slower 0 3.708520e+06 3.708524e+06 3.272
21 irregular 3 11 211 53 1.500000e+00 0.525 slower 1 3.708525e+06 3.708528e+06 2.256
21 irregular 3 12 212 67 1 0.581 slower 0 3.708529e+06 3.708531e+06 1.622
21 irregular 3 13 213 52 1.500000e+00 0.306 slower 1 3.708532e+06 3.708535e+06 2.163
21 irregular 3 14 214 67 1.500000e+00 0.420 faster 1 3.708536e+06 3.708540e+06 3.404
21 irregular 3 15 215 67 1 0.101 slower 0 3.708541e+06 3.708542e+06 1.706
21 irregular 3 16 216 52 2.500000e+00 0.570 slower 1 3.708545e+06 3.708548e+06 3.252
21 irregular 3 17 217 53 1 0.418 slower 1 3.708551e+06 3.708553e+06 1.740
21 irregular 3 18 218 53 2 0.498 slower 1 3.708555e+06 3.708558e+06 2.748
21 irregular 3 19 219 54 1.500000e+00 0.219 slower 1 3.708560e+06 3.708563e+06 2.242
21 irregular 3 20 220 66 1 0.414 slower 0 3.708564e+06 3.708565e+06 1.703
21 irregular 3 21 221 53 2 0.350 slower 1 3.708566e+06 3.708569e+06 2.672
21 irregular 3 22 222 66 2 0.377 faster 1 3.708570e+06 3.708573e+06 3.122
21 irregular 3 23 223 54 3 0.465 faster 0 3.708576e+06 3.708581e+06 4.180
21 irregular 3 24 224 53 2 0.344 slower 1 3.708582e+06 3.708585e+06 2.674
21 irregular 3 25 225 54 1.500000e+00 0.368 slower 1 3.708587e+06 3.708589e+06 2.069
21 irregular 3 26 226 66 2 0.405 none 2 3.708592e+06 3.708597e+06 5.000
21 irregular 3 27 227 66 2.500000e+00 0.288 none 2 3.708598e+06 3.708603e+06 5.500
21 irregular 3 28 228 54 3 0.148 slower 1 3.708604e+06 3.708608e+06 3.712
21 irregular 3 29 229 55 1.500000e+00 0.555 faster 0 3.708610e+06 3.708612e+06 2.361
21 irregular 3 30 230 54 2.500000e+00 0.308 slower 1 3.708614e+06 3.708618e+06 3.986
21 irregular 3 31 231 66 2.500000e+00 0.395 faster 1 3.708622e+06 3.708625e+06 3.543
21 irregular 3 32 232 55 1.500000e+00 0.372 slower 1 3.708627e+06 3.708630e+06 2.493
21 irregular 3 33 233 65 2.500000e+00 0.559 slower 0 3.708632e+06 3.708636e+06 3.222
21 irregular 3 34 234 66 2 0.175 slower 0 3.708637e+06 3.708640e+06 2.975
21 irregular 3 35 235 67 1 0.506 slower 0 3.708642e+06 3.708643e+06 1.696
21 irregular 3 36 236 68 2 0.171 slower 0 3.708646e+06 3.708649e+06 3.207
21 irregular 3 37 237 51 3 0.102 slower 1 3.708650e+06 3.708654e+06 3.786
21 irregular 3 38 238 68 1 0.518 slower 0 3.708655e+06 3.708658e+06 2.115
21 irregular 3 39 239 69 3 0.524 faster 1 3.708659e+06 3.708662e+06 3.646
21 irregular 3 40 240 69 1 0.508 slower 0 3.708665e+06 3.708667e+06 2.005
21 irregular 3 41 241 50 3 0.547 slower 1 3.708670e+06 3.708674e+06 3.807
21 irregular 3 42 242 69 1.500000e+00 0.111 faster 1 3.708677e+06 3.708679e+06 2.267
21 irregular 3 43 243 69 1.500000e+00 0.511 faster 1 3.708681e+06 3.708683e+06 2.119
21 irregular 3 44 244 68 1 0.263 faster 1 3.708685e+06 3.708687e+06 1.752
21 irregular 3 45 245 52 3 0.182 slower 1 3.708690e+06 3.708694e+06 3.705
21 irregular 3 46 246 53 1.500000e+00 0.419 slower 1 3.708698e+06 3.708700e+06 2.172
21 irregular 3 47 247 67 1.500000e+00 0.585 faster 1 3.708703e+06 3.708705e+06 2.291
21 irregular 3 48 248 54 1 0.107 slower 1 3.708711e+06 3.708713e+06 1.899
21 irregular 3 49 249 66 3 0.197 faster 1 3.708715e+06 3.708719e+06 3.787
21 irregular 3 50 250 65 2 0.428 faster 1 3.708722e+06 3.708725e+06 2.871
21 irregular 3 51 251 55 2.500000e+00 0.209 faster 0 3.708729e+06 3.708732e+06 3.222
21 irregular 3 52 252 66 1.500000e+00 0.562 faster 1 3.708735e+06 3.708738e+06 3.036
21 irregular 3 53 253 65 2 0.356 faster 1 3.708742e+06 3.708745e+06 3.314
21 irregular 3 54 254 55 1 0.377 faster 0 3.708746e+06 3.708749e+06 2.709
21 irregular 3 55 255 66 2.500000e+00 0.337 faster 1 3.708754e+06 3.708758e+06 3.389
21 irregular 3 56 256 55 2.500000e+00 0.301 faster 0 3.708762e+06 3.708766e+06 3.323
21 irregular 3 57 257 66 1.500000e+00 0.127 faster 1 3.708777e+06 3.708779e+06 2.157
21 irregular 3 58 258 54 2.500000e+00 0.330 faster 0 3.708807e+06 3.708810e+06 3.222
21 irregular 3 59 259 67 2 0.555 faster 1 3.708812e+06 3.708815e+06 2.840
21 irregular 3 60 260 66 2 0.296 slower 0 3.708817e+06 3.708821e+06 3.194
21 irregular 3 61 261 53 1 0.284 slower 1 3.708822e+06 3.708824e+06 1.790
21 irregular 3 62 262 53 1 0.285 slower 1 3.708825e+06 3.708827e+06 2.163
21 irregular 3 63 263 66 3 0.183 faster 1 3.708829e+06 3.708833e+06 3.548
21 irregular 3 64 264 54 1 0.483 faster 0 3.708835e+06 3.708837e+06 1.731
21 irregular 3 65 265 67 3 0.391 faster 1 3.708838e+06 3.708842e+06 3.741
21 irregular 3 66 266 54 3 0.319 slower 1 3.708845e+06 3.708849e+06 3.933
21 irregular 3 67 267 66 2 0.514 faster 1 3.708852e+06 3.708856e+06 4.046
21 irregular 3 68 268 55 3 0.171 faster 0 3.708858e+06 3.708862e+06 3.998
21 irregular 3 69 269 54 1 0.163 faster 0 3.708865e+06 3.708867e+06 2.220
21 irregular 3 70 270 53 3 0.581 faster 0 3.708871e+06 3.708876e+06 4.198
21 irregular 3 71 271 52 2.500000e+00 0.298 faster 0 3.708877e+06 3.708881e+06 3.607
21 irregular 3 72 272 51 2.500000e+00 0.285 faster 0 3.708882e+06 3.708886e+06 3.270
21 irregular 3 73 273 50 2.500000e+00 0.433 slower 1 3.708888e+06 3.708892e+06 3.840
21 irregular 3 74 274 70 3 0.566 faster 1 3.708894e+06 3.708898e+06 3.840
21 irregular 3 75 275 69 1.500000e+00 0.269 slower 0 3.708899e+06 3.708902e+06 2.928
21 irregular 3 76 276 70 2.500000e+00 0.172 slower 0 3.708904e+06 3.708908e+06 3.993
21 irregular 3 77 277 71 2 0.191 slower 0 3.708908e+06 3.708911e+06 2.723
21 irregular 3 78 278 48 2 0.134 slower 1 3.708912e+06 3.708915e+06 2.680
21 irregular 3 79 279 48 1 0.122 slower 1 3.708916e+06 3.708918e+06 1.683
21 irregular 3 80 280 49 2 0.248 slower 1 3.708919e+06 3.708922e+06 2.551
21 irregular 3 81 281 49 1 0.114 slower 1 3.708924e+06 3.708926e+06 1.680
21 irregular 3 82 282 70 1 0.416 faster 1 3.708928e+06 3.708929e+06 1.806
21 irregular 3 83 283 70 1.500000e+00 0.592 faster 1 3.708932e+06 3.708934e+06 2.129
21 irregular 3 84 284 51 2 0.566 slower 1 3.708937e+06 3.708940e+06 2.772
21 irregular 3 85 285 69 2.500000e+00 0.269 faster 1 3.708941e+06 3.708944e+06 3.023
21 irregular 3 86 286 52 1 0.282 faster 0 3.708946e+06 3.708948e+06 1.932
21 irregular 3 87 287 69 3 0.174 faster 1 3.708951e+06 3.708955e+06 3.811
21 irregular 3 88 288 51 3 0.301 slower 1 3.708961e+06 3.708965e+06 3.776
21 irregular 3 89 289 68 2.500000e+00 0.596 faster 1 3.708968e+06 3.708971e+06 3.373
21 irregular 3 90 290 68 1.500000e+00 0.474 faster 1 3.708973e+06 3.708975e+06 2.306
21 irregular 3 91 291 67 1 0.125 slower 0 3.708977e+06 3.708979e+06 2.238
21 irregular 3 92 292 52 1.500000e+00 0.267 slower 1 3.708981e+06 3.708983e+06 2.171
21 irregular 3 93 293 68 3 0.342 faster 1 3.708985e+06 3.708989e+06 3.701
21 irregular 3 94 294 53 2 0.405 slower 1 3.708991e+06 3.708995e+06 3.115
21 irregular 3 95 295 67 2.500000e+00 0.326 faster 1 3.708997e+06 3.709000e+06 3.093
21 irregular 3 96 296 54 2.500000e+00 0.416 slower 1 3.709003e+06 3.709006e+06 3.095
21 irregular 3 97 297 54 1.500000e+00 0.278 slower 1 3.709008e+06 3.709010e+06 2.507
21 irregular 3 98 298 65 3 0.503 faster 1 3.709013e+06 3.709017e+06 3.647
21 irregular 3 99 299 65 3 0.466 slower 0 3.709019e+06 3.709023e+06 3.669
21 irregular 3 100 300 54 2 0.343 slower 1 3.709025e+06 3.709027e+06 2.746
21 regular 4 1 301 53 2 0.464 slower 1 3.887027e+06 3.887030e+06 2.969
21 regular 4 2 302 53 2 0.147 slower 1 3.887031e+06 3.887036e+06 4.220
21 regular 4 3 303 55 2 0.580 faster 0 3.887037e+06 3.887040e+06 2.964
21 regular 4 4 304 67 2 0.475 faster 1 3.887042e+06 3.887045e+06 2.969
21 regular 4 5 305 67 2 0.504 faster 1 3.887046e+06 3.887049e+06 2.665
21 regular 4 6 306 65 2 0.275 faster 1 3.887050e+06 3.887053e+06 2.593
21 regular 4 7 307 65 2 0.323 faster 1 3.887054e+06 3.887057e+06 2.752
21 regular 4 8 308 57 2 0.271 faster 0 3.887058e+06 3.887062e+06 3.966
21 regular 4 9 309 55 2 0.426 faster 0 3.887064e+06 3.887067e+06 2.955
21 regular 4 10 310 67 2 0.522 faster 1 3.887069e+06 3.887072e+06 3.070
21 regular 4 11 311 53 2 0.377 slower 1 3.887074e+06 3.887076e+06 2.819
21 regular 4 12 312 65 2 0.274 faster 1 3.887077e+06 3.887080e+06 2.784
21 regular 4 13 313 55 2 0.251 faster 0 3.887082e+06 3.887085e+06 3.235
21 regular 4 14 314 66 2 0.400 slower 0 3.887086e+06 3.887089e+06 2.640
21 regular 4 15 315 67 2 0.339 faster 1 3.887091e+06 3.887095e+06 4.410
21 regular 4 16 316 54 2 0.511 slower 1 3.887097e+06 3.887099e+06 2.705
21 regular 4 17 317 54 2 0.581 none 2 3.887101e+06 3.887106e+06 4.999
21 regular 4 18 318 66 2 0.524 faster 1 3.887107e+06 3.887110e+06 3.087
21 regular 4 19 319 55 2 0.168 faster 0 3.887111e+06 3.887114e+06 3.338
21 regular 4 20 320 54 2 0.146 slower 1 3.887115e+06 3.887118e+06 3.093
21 regular 4 21 321 66 2 0.434 slower 0 3.887120e+06 3.887123e+06 2.852
21 regular 4 22 322 53 2 0.267 slower 1 3.887124e+06 3.887127e+06 2.870
21 regular 4 23 323 54 2 0.217 slower 1 3.887129e+06 3.887131e+06 2.649
21 regular 4 24 324 66 2 0.198 slower 0 3.887133e+06 3.887135e+06 2.874
21 regular 4 25 325 67 2 0.575 faster 1 3.887137e+06 3.887140e+06 2.900
21 regular 4 26 326 66 2 0.207 faster 1 3.887142e+06 3.887144e+06 2.824
21 regular 4 27 327 66 2 0.106 slower 0 3.887146e+06 3.887149e+06 3.189
21 regular 4 28 328 67 2 0.146 faster 1 3.887152e+06 3.887154e+06 2.839
21 regular 4 29 329 54 2 0.584 slower 1 3.887156e+06 3.887159e+06 2.562
21 regular 4 30 330 54 2 0.316 slower 1 3.887160e+06 3.887163e+06 2.696
21 regular 4 31 331 65 2 0.391 slower 0 3.887165e+06 3.887168e+06 3.171
21 regular 4 32 332 66 2 0.119 faster 1 3.887170e+06 3.887173e+06 2.624
21 regular 4 33 333 54 2 0.596 faster 0 3.887174e+06 3.887178e+06 3.645
21 regular 4 34 334 53 2 0.441 faster 0 3.887180e+06 3.887183e+06 3.050
21 regular 4 35 335 68 2 0.161 faster 1 3.887184e+06 3.887186e+06 2.775
21 regular 4 36 336 67 2 0.515 faster 1 3.887188e+06 3.887190e+06 2.641
21 regular 4 37 337 67 2 0.300 slower 0 3.887191e+06 3.887194e+06 3.264
21 regular 4 38 338 52 2 0.595 slower 1 3.887196e+06 3.887199e+06 2.807
21 regular 4 39 339 53 2 0.566 slower 1 3.887201e+06 3.887204e+06 2.658
21 regular 4 40 340 53 2 0.344 slower 1 3.887205e+06 3.887208e+06 2.766
21 regular 4 41 341 66 2 0.585 slower 0 3.887210e+06 3.887215e+06 4.215
21 regular 4 42 342 67 2 0.267 slower 0 3.887216e+06 3.887220e+06 3.318
21 regular 4 43 343 68 2 0.241 faster 1 3.887221e+06 3.887224e+06 3.216
21 regular 4 44 344 68 2 0.505 faster 1 3.887226e+06 3.887229e+06 2.684
21 regular 4 45 345 53 2 0.219 faster 0 3.887231e+06 3.887234e+06 3.088
21 regular 4 46 346 68 2 0.297 faster 1 3.887236e+06 3.887238e+06 2.651
21 regular 4 47 347 52 2 0.139 slower 1 3.887240e+06 3.887243e+06 2.887
21 regular 4 48 348 53 2 0.186 slower 1 3.887244e+06 3.887247e+06 2.615
21 regular 4 49 349 67 2 0.118 faster 1 3.887248e+06 3.887252e+06 3.468
21 regular 4 50 350 66 2 0.326 faster 1 3.887253e+06 3.887256e+06 2.826
21 regular 4 51 351 54 2 0.336 faster 0 3.887258e+06 3.887261e+06 3.335
21 regular 4 52 352 53 2 0.124 slower 1 3.887262e+06 3.887265e+06 2.805
21 regular 4 53 353 66 2 0.161 slower 0 3.887267e+06 3.887271e+06 4.215
21 regular 4 54 354 53 2 0.287 slower 1 3.887272e+06 3.887275e+06 2.799
21 regular 4 55 355 53 2 0.584 faster 0 3.887277e+06 3.887280e+06 3.114
21 regular 4 56 356 68 2 0.401 slower 0 3.887281e+06 3.887284e+06 3.143
21 regular 4 57 357 69 2 0.484 faster 1 3.887286e+06 3.887289e+06 2.844
21 regular 4 58 358 68 2 0.161 faster 1 3.887290e+06 3.887293e+06 2.558
21 regular 4 59 359 68 2 0.131 faster 1 3.887294e+06 3.887298e+06 3.987
21 regular 4 60 360 53 2 0.580 faster 0 3.887300e+06 3.887303e+06 2.899
21 regular 4 61 361 68 2 0.381 faster 1 3.887304e+06 3.887307e+06 2.831
21 regular 4 62 362 68 2 0.311 faster 1 3.887309e+06 3.887311e+06 2.844
21 regular 4 63 363 53 2 0.146 slower 1 3.887313e+06 3.887316e+06 2.868
21 regular 4 64 364 53 2 0.525 faster 0 3.887318e+06 3.887320e+06 2.745
21 regular 4 65 365 68 2 0.239 faster 1 3.887321e+06 3.887325e+06 3.296
21 regular 4 66 366 67 2 0.576 faster 1 3.887326e+06 3.887329e+06 2.963
21 regular 4 67 367 67 2 0.117 faster 1 3.887331e+06 3.887333e+06 2.772
21 regular 4 68 368 54 2 0.533 slower 1 3.887335e+06 3.887338e+06 3.046
21 regular 4 69 369 66 2 0.517 faster 1 3.887340e+06 3.887343e+06 3.003
21 regular 4 70 370 65 2 0.263 faster 1 3.887344e+06 3.887347e+06 3.059
21 regular 4 71 371 65 2 0.209 faster 1 3.887348e+06 3.887351e+06 2.854
21 regular 4 72 372 56 2 0.526 faster 0 3.887353e+06 3.887356e+06 2.871
21 regular 4 73 373 55 2 0.318 slower 1 3.887357e+06 3.887360e+06 3.065
21 regular 4 74 374 55 2 0.217 faster 0 3.887361e+06 3.887365e+06 3.893
21 regular 4 75 375 54 2 0.389 faster 0 3.887367e+06 3.887370e+06 2.738
21 regular 4 76 376 67 2 0.292 faster 1 3.887371e+06 3.887374e+06 2.762
21 regular 4 77 377 54 2 0.600 faster 0 3.887375e+06 3.887378e+06 2.697
21 regular 4 78 378 53 2 0.227 slower 1 3.887379e+06 3.887382e+06 2.692
21 regular 4 79 379 67 2 0.439 faster 1 3.887383e+06 3.887386e+06 2.741
21 regular 4 80 380 66 2 0.358 faster 1 3.887388e+06 3.887390e+06 2.740
21 regular 4 81 381 66 2 0.573 slower 0 3.887392e+06 3.887395e+06 3.023
21 regular 4 82 382 53 2 0.202 slower 1 3.887397e+06 3.887399e+06 2.568
21 regular 4 83 383 66 2 0.450 slower 0 3.887402e+06 3.887404e+06 2.454
21 regular 4 84 384 53 2 0.326 faster 0 3.887406e+06 3.887409e+06 3.304
21 regular 4 85 385 52 2 0.368 faster 0 3.887411e+06 3.887414e+06 2.791
21 regular 4 86 386 51 2 0.258 faster 0 3.887415e+06 3.887418e+06 2.674
21 regular 4 87 387 50 2 0.204 faster 0 3.887419e+06 3.887422e+06 2.676
21 regular 4 88 388 71 2 0.209 faster 1 3.887423e+06 3.887425e+06 2.844
21 regular 4 89 389 49 2 0.471 slower 1 3.887428e+06 3.887430e+06 2.826
21 regular 4 90 390 50 2 0.150 slower 1 3.887432e+06 3.887434e+06 2.537
21 regular 4 91 391 50 2 0.262 slower 1 3.887437e+06 3.887439e+06 2.585
21 regular 4 92 392 51 2 0.321 slower 1 3.887441e+06 3.887443e+06 2.475
21 regular 4 93 393 51 2 0.271 slower 1 3.887446e+06 3.887449e+06 2.434
21 regular 4 94 394 52 2 0.442 faster 0 3.887451e+06 3.887454e+06 3.553
21 regular 4 95 395 69 2 0.413 faster 1 3.887457e+06 3.887460e+06 3.078
21 regular 4 96 396 69 2 0.474 faster 1 3.887462e+06 3.887465e+06 2.630
21 regular 4 97 397 52 2 0.553 faster 0 3.887467e+06 3.887471e+06 3.162
21 regular 4 98 398 69 2 0.586 faster 1 3.887473e+06 3.887476e+06 2.740
21 regular 4 99 399 69 2 0.373 faster 1 3.887478e+06 3.887481e+06 2.920
21 regular 4 100 400 52 2 0.384 slower 1 3.887482e+06 3.887487e+06 4.210
21 irregular 5 1 401 68 3 0.139 faster 1 3.887503e+06 3.887507e+06 4.238
21 irregular 5 2 402 67 2 0.373 faster 1 3.887509e+06 3.887511e+06 2.545
21 irregular 5 3 403 53 1.500000e+00 0.568 faster 0 3.887513e+06 3.887515e+06 2.133
21 irregular 5 4 404 52 3 0.338 faster 0 3.887516e+06 3.887520e+06 3.857
21 irregular 5 5 405 51 1 0.245 none 2 3.887521e+06 3.887525e+06 4.000
21 irregular 5 6 406 69 2 0.143 faster 1 3.887526e+06 3.887528e+06 2.535
21 irregular 5 7 407 52 2 0.477 faster 0 3.887530e+06 3.887533e+06 3.078
21 irregular 5 8 408 51 3 0.268 faster 0 3.887534e+06 3.887538e+06 3.655
21 irregular 5 9 409 50 1.500000e+00 0.436 faster 0 3.887539e+06 3.887542e+06 2.384
21 irregular 5 10 410 49 1.500000e+00 0.272 faster 0 3.887543e+06 3.887546e+06 2.507
21 irregular 5 11 411 48 2.500000e+00 0.172 slower 1 3.887548e+06 3.887552e+06 3.466
21 irregular 5 12 412 72 2.500000e+00 0.251 faster 1 3.887553e+06 3.887557e+06 3.332
21 irregular 5 13 413 71 3 0.108 faster 1 3.887557e+06 3.887561e+06 3.875
21 irregular 5 14 414 49 1.500000e+00 0.335 faster 0 3.887564e+06 3.887567e+06 2.750
21 irregular 5 15 415 72 3 0.296 faster 1 3.887569e+06 3.887572e+06 3.840
21 irregular 5 16 416 71 1.500000e+00 0.402 faster 1 3.887574e+06 3.887576e+06 2.249
21 irregular 5 17 417 71 1 0.363 faster 1 3.887577e+06 3.887579e+06 1.654
21 irregular 5 18 418 50 1.500000e+00 0.302 faster 0 3.887580e+06 3.887582e+06 2.182
21 irregular 5 19 419 71 3 0.119 faster 1 3.887584e+06 3.887588e+06 3.779
21 irregular 5 20 420 71 3 0.156 faster 1 3.887589e+06 3.887593e+06 3.560
21 irregular 5 21 421 50 2.500000e+00 0.292 slower 1 3.887594e+06 3.887598e+06 3.336
21 irregular 5 22 422 70 1.500000e+00 0.274 faster 1 3.887599e+06 3.887601e+06 2.123
21 irregular 5 23 423 69 2 0.496 faster 1 3.887603e+06 3.887606e+06 2.520
21 irregular 5 24 424 69 1 0.321 faster 1 3.887607e+06 3.887609e+06 1.874
21 irregular 5 25 425 52 2 0.246 faster 0 3.887610e+06 3.887613e+06 2.775
21 irregular 5 26 426 69 2 0.512 faster 1 3.887616e+06 3.887620e+06 3.579
21 irregular 5 27 427 69 1 0.448 faster 1 3.887621e+06 3.887623e+06 1.676
21 irregular 5 28 428 52 3 0.126 faster 0 3.887624e+06 3.887629e+06 5.227
21 irregular 5 29 429 51 3 0.533 slower 1 3.887634e+06 3.887638e+06 4.299
21 irregular 5 30 430 51 2.500000e+00 0.466 faster 0 3.887640e+06 3.887643e+06 3.284
21 irregular 5 31 431 50 2.500000e+00 0.480 slower 1 3.887645e+06 3.887648e+06 3.268
21 irregular 5 32 432 69 3 0.369 faster 1 3.887651e+06 3.887655e+06 3.708
21 irregular 5 33 433 51 2 0.426 slower 1 3.887656e+06 3.887659e+06 2.898
21 irregular 5 34 434 68 2 0.496 faster 1 3.887663e+06 3.887665e+06 2.553
21 irregular 5 35 435 52 2 0.562 faster 0 3.887667e+06 3.887670e+06 2.762
21 irregular 5 36 436 51 1 0.553 slower 1 3.887672e+06 3.887674e+06 1.897
21 irregular 5 37 437 52 1 0.514 faster 0 3.887676e+06 3.887678e+06 1.658
21 irregular 5 38 438 69 2.500000e+00 0.589 faster 1 3.887680e+06 3.887683e+06 3.075
21 irregular 5 39 439 51 1.500000e+00 0.447 faster 0 3.887685e+06 3.887687e+06 2.579
21 irregular 5 40 440 50 2 0.582 slower 1 3.887689e+06 3.887692e+06 2.743
21 irregular 5 41 441 69 2 0.459 faster 1 3.887694e+06 3.887696e+06 2.611
21 irregular 5 42 442 69 2.500000e+00 0.501 faster 1 3.887698e+06 3.887701e+06 3.125
21 irregular 5 43 443 52 3 0.416 faster 0 3.887703e+06 3.887707e+06 3.859
21 irregular 5 44 444 69 3 0.273 faster 1 3.887708e+06 3.887712e+06 3.880
21 irregular 5 45 445 69 1.500000e+00 0.346 faster 1 3.887714e+06 3.887716e+06 2.303
21 irregular 5 46 446 68 1.500000e+00 0.180 faster 1 3.887717e+06 3.887719e+06 2.223
21 irregular 5 47 447 52 2 0.329 faster 0 3.887720e+06 3.887723e+06 2.599
21 irregular 5 48 448 51 2 0.187 faster 0 3.887724e+06 3.887727e+06 2.714
21 irregular 5 49 449 70 2 0.287 faster 1 3.887730e+06 3.887732e+06 2.836
21 irregular 5 50 450 51 2 0.293 faster 0 3.887734e+06 3.887737e+06 2.833
21 irregular 5 51 451 70 3 0.406 faster 1 3.887739e+06 3.887742e+06 3.693
21 irregular 5 52 452 50 1 0.102 slower 1 3.887744e+06 3.887746e+06 1.650
21 irregular 5 53 453 51 2 0.382 slower 1 3.887748e+06 3.887750e+06 2.768
21 irregular 5 54 454 69 2.500000e+00 0.276 slower 0 3.887751e+06 3.887755e+06 3.156
21 irregular 5 55 455 70 2.500000e+00 0.446 faster 1 3.887757e+06 3.887760e+06 3.163
21 irregular 5 56 456 51 3 0.235 slower 1 3.887761e+06 3.887765e+06 3.698
21 irregular 5 57 457 69 2.500000e+00 0.238 slower 0 3.887767e+06 3.887770e+06 3.513
21 irregular 5 58 458 70 1.500000e+00 0.383 faster 1 3.887774e+06 3.887776e+06 2.101
21 irregular 5 59 459 69 1 0.521 faster 1 3.887780e+06 3.887783e+06 2.786
21 irregular 5 60 460 69 1 0.487 faster 1 3.887785e+06 3.887787e+06 2.384
21 irregular 5 61 461 68 2 0.364 faster 1 3.887789e+06 3.887792e+06 3.002
21 irregular 5 62 462 52 1.500000e+00 0.498 faster 0 3.887794e+06 3.887797e+06 2.324
21 irregular 5 63 463 51 2.500000e+00 0.521 slower 1 3.887798e+06 3.887802e+06 3.383
21 irregular 5 64 464 52 1.500000e+00 0.598 faster 0 3.887804e+06 3.887806e+06 2.754
21 irregular 5 65 465 51 1 0.368 faster 0 3.887809e+06 3.887811e+06 1.928
21 irregular 5 66 466 50 3 0.418 slower 1 3.887813e+06 3.887818e+06 4.229
21 irregular 5 67 467 50 1.500000e+00 0.541 faster 0 3.887819e+06 3.887821e+06 2.516
21 irregular 5 68 468 49 2.500000e+00 0.118 slower 1 3.887823e+06 3.887826e+06 3.105
21 irregular 5 69 469 50 1 0.438 slower 1 3.887827e+06 3.887829e+06 1.704
21 irregular 5 70 470 50 3 0.129 slower 1 3.887830e+06 3.887834e+06 3.701
21 irregular 5 71 471 51 3 0.143 slower 1 3.887836e+06 3.887840e+06 3.939
21 irregular 5 72 472 51 1 0.177 slower 1 3.887841e+06 3.887843e+06 1.970
21 irregular 5 73 473 68 1 0.495 faster 1 3.887847e+06 3.887850e+06 2.152
21 irregular 5 74 474 68 2 0.575 faster 1 3.887858e+06 3.887860e+06 2.735
21 irregular 5 75 475 67 1 0.349 slower 0 3.887862e+06 3.887864e+06 1.831
21 irregular 5 76 476 52 2.500000e+00 0.230 slower 1 3.887868e+06 3.887872e+06 4.012
21 irregular 5 77 477 68 1.500000e+00 0.596 faster 1 3.887876e+06 3.887878e+06 2.191
21 irregular 5 78 478 53 2.500000e+00 0.102 faster 0 3.887890e+06 3.887894e+06 3.386
21 irregular 5 79 479 68 2 0.340 faster 1 3.887904e+06 3.887907e+06 2.788
21 irregular 5 80 480 68 1.500000e+00 0.436 faster 1 3.887908e+06 3.887910e+06 2.282
21 irregular 5 81 481 53 2.500000e+00 0.296 faster 0 3.887911e+06 3.887914e+06 3.329
21 irregular 5 82 482 52 2 0.210 faster 0 3.887916e+06 3.887919e+06 3.001
21 irregular 5 83 483 69 1 0.418 faster 1 3.887921e+06 3.887923e+06 1.744
21 irregular 5 84 484 69 2.500000e+00 0.430 faster 1 3.887924e+06 3.887927e+06 3.131
21 irregular 5 85 485 68 1.500000e+00 0.408 faster 1 3.887929e+06 3.887931e+06 2.112
21 irregular 5 86 486 68 1.500000e+00 0.132 faster 1 3.887932e+06 3.887934e+06 2.450
21 irregular 5 87 487 67 1.500000e+00 0.496 faster 1 3.887935e+06 3.887938e+06 2.198
21 irregular 5 88 488 67 1 0.389 faster 1 3.887940e+06 3.887941e+06 1.574
21 irregular 5 89 489 54 1 0.168 faster 0 3.887943e+06 3.887946e+06 2.808
21 irregular 5 90 490 53 1 0.597 slower 1 3.887948e+06 3.887950e+06 1.786
21 irregular 5 91 491 53 1.500000e+00 0.190 slower 1 3.887951e+06 3.887954e+06 2.206
21 irregular 5 92 492 54 1 0.524 slower 1 3.887957e+06 3.887958e+06 1.733
21 irregular 5 93 493 66 2.500000e+00 0.485 slower 0 3.887960e+06 3.887964e+06 3.833
21 irregular 5 94 494 53 2.500000e+00 0.248 faster 0 3.887966e+06 3.887969e+06 3.483
21 irregular 5 95 495 52 3 0.220 faster 0 3.887971e+06 3.887975e+06 3.780
21 irregular 5 96 496 69 1 0.113 faster 1 3.887977e+06 3.887978e+06 1.707
21 irregular 5 97 497 68 2.500000e+00 0.123 faster 1 3.887979e+06 3.887982e+06 3.120
21 irregular 5 98 498 68 3 0.501 faster 1 3.887984e+06 3.887988e+06 3.747
21 irregular 5 99 499 67 2.500000e+00 0.217 faster 1 3.887989e+06 3.887992e+06 3.169
21 irregular 5 100 500 67 3 0.238 faster 1 3.887993e+06 3.887997e+06 3.657
21 regular 6 1 501 54 1 0.143 slower 1 8.211670e+04 8.211841e+04 1.713
21 regular 6 2 502 66 1 0.355 faster 1 8.211977e+04 8.212262e+04 2.853
21 regular 6 3 503 56 1 0.464 slower 1 8.212414e+04 8.212684e+04 2.703
21 regular 6 4 504 56 1 0.147 slower 1 8.212816e+04 8.213142e+04 3.260
21 regular 6 5 505 62 1 0.580 faster 1 8.213315e+04 8.213472e+04 1.571
21 regular 6 6 506 58 1 0.475 faster 0 8.213635e+04 8.213798e+04 1.632
21 regular 6 7 507 56 1 0.504 faster 0 8.213969e+04 8.214144e+04 1.749
21 regular 6 8 508 54 1 0.275 faster 0 8.214299e+04 8.214462e+04 1.626
21 regular 6 9 509 68 1 0.323 faster 1 8.214610e+04 8.214769e+04 1.597
21 regular 6 10 510 66 1 0.271 faster 1 8.214906e+04 8.215076e+04 1.708
21 regular 6 11 511 66 1 0.426 faster 1 8.215242e+04 8.215392e+04 1.492
21 regular 6 12 512 56 1 0.522 faster 0 8.215558e+04 8.215700e+04 1.424
21 regular 6 13 513 54 1 0.377 faster 0 8.215858e+04 8.216008e+04 1.499
21 regular 6 14 514 68 1 0.274 faster 1 8.216156e+04 8.216312e+04 1.560
21 regular 6 15 515 52 1 0.251 slower 1 8.216469e+04 8.216740e+04 2.717
21 regular 6 16 516 66 1 0.400 faster 1 8.216926e+04 8.217113e+04 1.875
21 regular 6 17 517 54 1 0.339 slower 1 8.217342e+04 8.217518e+04 1.756
21 regular 6 18 518 65 1 0.511 slower 0 8.217751e+04 8.217915e+04 1.634
21 regular 6 19 519 66 1 0.581 none 2 8.218141e+04 8.218541e+04 3.999
21 regular 6 20 520 54 1 0.524 slower 1 8.218658e+04 8.218849e+04 1.912
21 regular 6 21 521 66 1 0.168 slower 0 8.218977e+04 8.219284e+04 3.078
21 regular 6 22 522 67 1 0.146 slower 0 8.219447e+04 8.219616e+04 1.690
21 regular 6 23 523 52 1 0.434 slower 1 8.219770e+04 8.219931e+04 1.611
21 regular 6 24 524 53 1 0.267 faster 0 8.220085e+04 8.220268e+04 1.835
21 regular 6 25 525 52 1 0.217 faster 0 8.220445e+04 8.220619e+04 1.741
21 regular 6 26 526 51 1 0.198 faster 0 8.220783e+04 8.220980e+04 1.970
21 regular 6 27 527 70 1 0.575 faster 1 8.221211e+04 8.221406e+04 1.955
21 regular 6 28 528 70 1 0.207 faster 1 8.221535e+04 8.221705e+04 1.701
21 regular 6 29 529 69 1 0.106 faster 1 8.221819e+04 8.221979e+04 1.596
21 regular 6 30 530 69 1 0.146 faster 1 8.222103e+04 8.222270e+04 1.669
21 regular 6 31 531 52 1 0.584 slower 1 8.222432e+04 8.222598e+04 1.663
21 regular 6 32 532 68 1 0.316 slower 0 8.222728e+04 8.222923e+04 1.952
21 regular 6 33 533 69 1 0.391 slower 0 8.223103e+04 8.223270e+04 1.666
21 regular 6 34 534 70 1 0.119 faster 1 8.223437e+04 8.223617e+04 1.802
21 regular 6 35 535 51 1 0.596 slower 1 8.223909e+04 8.224100e+04 1.915
21 regular 6 36 536 51 1 0.441 faster 0 8.224208e+04 8.224403e+04 1.949
21 regular 6 37 537 50 1 0.161 slower 1 8.224601e+04 8.224804e+04 2.034
21 regular 6 38 538 69 1 0.515 faster 1 8.225104e+04 8.225270e+04 1.665
21 regular 6 39 539 69 1 0.300 faster 1 8.225421e+04 8.225580e+04 1.593
21 regular 6 40 540 68 1 0.595 faster 1 8.225746e+04 8.225902e+04 1.556
21 regular 6 41 541 52 1 0.566 slower 1 8.226107e+04 8.226288e+04 1.804
21 regular 6 42 542 53 1 0.344 slower 1 8.226465e+04 8.226692e+04 2.277
21 regular 6 43 543 53 1 0.585 faster 0 8.226930e+04 8.227132e+04 2.028
21 regular 6 44 544 52 1 0.267 faster 0 8.227378e+04 8.227544e+04 1.659
21 regular 6 45 545 69 1 0.241 faster 1 8.227850e+04 8.228046e+04 1.959
21 regular 6 46 546 68 1 0.505 faster 1 8.228271e+04 8.228446e+04 1.753
21 regular 6 47 547 52 1 0.219 faster 0 8.228580e+04 8.228758e+04 1.774
21 regular 6 48 548 51 1 0.297 faster 0 8.228926e+04 8.229235e+04 3.083
21 regular 6 49 549 70 1 0.139 faster 1 8.229505e+04 8.229673e+04 1.686
21 regular 6 50 550 69 1 0.186 faster 1 8.229799e+04 8.229980e+04 1.817
21 regular 6 51 551 51 1 0.118 faster 0 8.230104e+04 8.230288e+04 1.840
21 regular 6 52 552 70 1 0.326 faster 1 8.230468e+04 8.230656e+04 1.880
21 regular 6 53 553 69 1 0.336 faster 1 8.230792e+04 8.230958e+04 1.656
21 regular 6 54 554 51 1 0.124 slower 1 8.231069e+04 8.231248e+04 1.782
21 regular 6 55 555 68 1 0.161 faster 1 8.231364e+04 8.231577e+04 2.134
21 regular 6 56 556 68 1 0.287 faster 1 8.231708e+04 8.231984e+04 2.751
21 regular 6 57 557 53 1 0.584 faster 0 8.232150e+04 8.232336e+04 1.859
21 regular 6 58 558 52 1 0.401 slower 1 8.232483e+04 8.232675e+04 1.920
21 regular 6 59 559 68 1 0.484 faster 1 8.232821e+04 8.233030e+04 2.086
21 regular 6 60 560 53 1 0.161 faster 0 8.233198e+04 8.233404e+04 2.067
21 regular 6 61 561 68 1 0.131 slower 0 8.233595e+04 8.233758e+04 1.632
21 regular 6 62 562 69 1 0.580 slower 0 8.233982e+04 8.234136e+04 1.538
21 regular 6 63 563 50 1 0.381 slower 1 8.234323e+04 8.234545e+04 2.219
21 regular 6 64 564 70 1 0.311 faster 1 8.234748e+04 8.234899e+04 1.507
21 regular 6 65 565 51 1 0.146 faster 0 8.235057e+04 8.235227e+04 1.695
21 regular 6 66 566 70 1 0.525 faster 1 8.235537e+04 8.235689e+04 1.517
21 regular 6 67 567 50 1 0.239 faster 0 8.236016e+04 8.236164e+04 1.488
21 regular 6 68 568 49 1 0.576 slower 1 8.236344e+04 8.236528e+04 1.837
21 regular 6 69 569 50 1 0.117 faster 0 8.236681e+04 8.236867e+04 1.857
21 regular 6 70 570 71 1 0.533 faster 1 8.237005e+04 8.237185e+04 1.805
21 regular 6 71 571 49 1 0.517 slower 1 8.237351e+04 8.237507e+04 1.556
21 regular 6 72 572 50 1 0.263 slower 1 8.237640e+04 8.237790e+04 1.498
21 regular 6 73 573 70 1 0.209 slower 0 8.237915e+04 8.238087e+04 1.724
21 regular 6 74 574 49 1 0.526 slower 1 8.238282e+04 8.238446e+04 1.637
21 regular 6 75 575 50 1 0.318 slower 1 8.238586e+04 8.238758e+04 1.724
21 regular 6 76 576 70 1 0.217 none 2 8.238905e+04 8.239305e+04 4.000
21 regular 6 77 577 70 1 0.389 faster 1 8.239474e+04 8.239668e+04 1.947
21 regular 6 78 578 69 1 0.292 faster 1 8.239824e+04 8.239995e+04 1.708
21 regular 6 79 579 51 1 0.600 slower 1 8.240188e+04 8.240363e+04 1.751
21 regular 6 80 580 52 1 0.227 faster 0 8.240516e+04 8.240780e+04 2.641
21 regular 6 81 581 69 1 0.439 faster 1 8.241052e+04 8.241222e+04 1.700
21 regular 6 82 582 69 1 0.358 faster 1 8.241431e+04 8.241603e+04 1.716
21 regular 6 83 583 52 1 0.573 slower 1 8.241866e+04 8.242036e+04 1.703
21 regular 6 84 584 52 1 0.202 slower 1 8.242212e+04 8.242385e+04 1.735
21 regular 6 85 585 67 1 0.450 faster 1 8.242646e+04 8.242819e+04 1.723
21 regular 6 86 586 53 1 0.326 faster 0 8.242959e+04 8.243142e+04 1.828
21 regular 6 87 587 68 1 0.368 slower 0 8.243285e+04 8.243454e+04 1.693
21 regular 6 88 588 69 1 0.258 faster 1 8.243620e+04 8.243787e+04 1.667
21 regular 6 89 589 68 1 0.204 faster 1 8.243956e+04 8.244147e+04 1.907
21 regular 6 90 590 68 1 0.209 faster 1 8.244327e+04 8.244508e+04 1.809
21 regular 6 91 591 53 1 0.471 faster 0 8.244689e+04 8.244940e+04 2.514
21 regular 6 92 592 68 1 0.150 faster 1 8.245058e+04 8.245288e+04 2.300
21 regular 6 93 593 68 1 0.262 slower 0 8.245420e+04 8.245592e+04 1.710
21 regular 6 94 594 69 1 0.321 faster 1 8.245725e+04 8.245900e+04 1.756
21 regular 6 95 595 52 1 0.271 slower 1 8.246033e+04 8.246204e+04 1.715
21 regular 6 96 596 68 1 0.442 slower 0 8.246353e+04 8.246553e+04 2.002
21 regular 6 97 597 51 1 0.413 slower 1 8.246712e+04 8.246875e+04 1.628
21 regular 6 98 598 52 1 0.474 slower 1 8.247025e+04 8.247193e+04 1.682
21 regular 6 99 599 52 1 0.553 slower 1 8.247352e+04 8.247503e+04 1.517
21 regular 6 100 600 53 1 0.586 slower 1 8.247675e+04 8.247847e+04 1.727
21 irregular 7 1 601 53 2 0.373 faster 0 8.249137e+04 8.249615e+04 4.786
21 irregular 7 2 602 68 1.500000e+00 0.384 faster 1 8.249775e+04 8.250020e+04 2.456
21 irregular 7 3 603 67 1.500000e+00 0.139 slower 0 8.250157e+04 8.250376e+04 2.183
21 irregular 7 4 604 68 1.500000e+00 0.373 faster 1 8.250587e+04 8.250851e+04 2.639
21 irregular 7 5 605 68 1.500000e+00 0.568 slower 0 8.251034e+04 8.251294e+04 2.598
21 irregular 7 6 606 69 3 0.338 faster 1 8.251448e+04 8.251940e+04 4.926
21 irregular 7 7 607 52 3 0.245 slower 1 8.252122e+04 8.252513e+04 3.907
21 irregular 7 8 608 68 1 0.143 faster 1 8.252657e+04 8.252854e+04 1.969
21 irregular 7 9 609 67 2 0.477 faster 1 8.253066e+04 8.253334e+04 2.676
21 irregular 7 10 610 53 1.500000e+00 0.268 faster 0 8.253510e+04 8.253764e+04 2.538
21 irregular 7 11 611 68 2 0.436 faster 1 8.253922e+04 8.254180e+04 2.586
21 irregular 7 12 612 53 2 0.272 slower 1 8.254350e+04 8.254620e+04 2.708
21 irregular 7 13 613 67 1.500000e+00 0.172 none 2 8.254751e+04 8.255201e+04 4.500
21 irregular 7 14 614 53 1 0.251 slower 1 8.255302e+04 8.255476e+04 1.741
21 irregular 7 15 615 54 1 0.108 slower 1 8.255553e+04 8.255854e+04 3.007
21 irregular 7 16 616 54 1.500000e+00 0.335 slower 1 8.256009e+04 8.256222e+04 2.129
21 irregular 7 17 617 65 3 0.296 faster 1 8.256379e+04 8.256857e+04 4.782
21 irregular 7 18 618 65 1.500000e+00 0.402 slower 0 8.257037e+04 8.257256e+04 2.181
21 irregular 7 19 619 66 3 0.363 faster 1 8.257441e+04 8.257899e+04 4.576
21 irregular 7 20 620 55 3 0.302 slower 1 8.258173e+04 8.258556e+04 3.837
21 irregular 7 21 621 65 2.500000e+00 0.119 faster 1 8.258730e+04 8.259211e+04 4.807
21 irregular 7 22 622 56 2 0.156 slower 1 8.259377e+04 8.259654e+04 2.769
21 irregular 7 23 623 64 3 0.292 slower 0 8.259898e+04 8.260267e+04 3.685
21 irregular 7 24 624 65 2.500000e+00 0.274 faster 1 8.260427e+04 8.260784e+04 3.570
21 irregular 7 25 625 64 1 0.496 faster 1 8.261030e+04 8.261235e+04 2.047
21 irregular 7 26 626 56 1 0.321 faster 0 8.261452e+04 8.261639e+04 1.877
21 irregular 7 27 627 65 1 0.246 faster 1 8.261785e+04 8.261951e+04 1.666
21 irregular 7 28 628 64 2.500000e+00 0.512 faster 1 8.262115e+04 8.262577e+04 4.623
21 irregular 7 29 629 56 2.500000e+00 0.448 slower 1 8.262686e+04 8.263123e+04 4.365
21 irregular 7 30 630 63 2.500000e+00 0.126 faster 1 8.263365e+04 8.263759e+04 3.940
21 irregular 7 31 631 63 1 0.533 slower 0 8.263930e+04 8.264107e+04 1.764
21 irregular 7 32 632 56 2 0.466 slower 1 8.264264e+04 8.264536e+04 2.716
21 irregular 7 33 633 57 1 0.480 slower 1 8.264720e+04 8.264908e+04 1.885
21 irregular 7 34 634 63 2 0.369 slower 0 8.265213e+04 8.265483e+04 2.696
21 irregular 7 35 635 56 1 0.426 slower 1 8.265749e+04 8.265927e+04 1.783
21 irregular 7 36 636 63 2 0.496 slower 0 8.266098e+04 8.266412e+04 3.143
21 irregular 7 37 637 64 1.500000e+00 0.562 slower 0 8.266615e+04 8.266825e+04 2.105
21 irregular 7 38 638 65 2.500000e+00 0.553 slower 0 8.267034e+04 8.267438e+04 4.036
21 irregular 7 39 639 54 3 0.514 slower 1 8.267672e+04 8.268057e+04 3.847
21 irregular 7 40 640 66 2 0.589 faster 1 8.268366e+04 8.268641e+04 2.752
21 irregular 7 41 641 65 3 0.447 slower 0 8.268799e+04 8.269217e+04 4.183
21 irregular 7 42 642 54 2.500000e+00 0.582 slower 1 8.269420e+04 8.269740e+04 3.204
21 irregular 7 43 643 54 1.500000e+00 0.459 slower 1 8.269897e+04 8.270231e+04 3.341
21 irregular 7 44 644 65 2 0.501 faster 1 8.270485e+04 8.270755e+04 2.701
21 irregular 7 45 645 55 1.500000e+00 0.416 faster 0 8.271090e+04 8.271299e+04 2.085
21 irregular 7 46 646 54 1 0.273 faster 0 8.271556e+04 8.271721e+04 1.646
21 irregular 7 47 647 67 1.500000e+00 0.346 faster 1 8.271908e+04 8.272132e+04 2.242
21 irregular 7 48 648 54 2.500000e+00 0.180 faster 0 8.272418e+04 8.272803e+04 3.848
21 irregular 7 49 649 67 2 0.329 slower 0 8.273062e+04 8.273327e+04 2.650
21 irregular 7 50 650 68 1.500000e+00 0.187 faster 1 8.273715e+04 8.273955e+04 2.398
21 irregular 7 51 651 68 1 0.287 faster 1 8.274271e+04 8.274444e+04 1.735
21 irregular 7 52 652 53 1 0.293 slower 1 8.274646e+04 8.274838e+04 1.923
21 irregular 7 53 653 53 1.500000e+00 0.406 slower 1 8.275029e+04 8.275255e+04 2.262
21 irregular 7 54 654 54 2.500000e+00 0.102 slower 1 8.275442e+04 8.275796e+04 3.547
21 irregular 7 55 655 66 3 0.382 slower 0 8.276566e+04 8.277060e+04 4.946
21 irregular 7 56 656 53 2.500000e+00 0.276 faster 0 8.277208e+04 8.277635e+04 4.268
21 irregular 7 57 657 68 1.500000e+00 0.446 faster 1 8.277820e+04 8.278044e+04 2.243
21 irregular 7 58 658 53 1.500000e+00 0.235 faster 0 8.278208e+04 8.278422e+04 2.139
21 irregular 7 59 659 52 3 0.238 slower 1 8.278740e+04 8.279140e+04 4.007
21 irregular 7 60 660 52 2 0.383 slower 1 8.279307e+04 8.279713e+04 4.058
21 irregular 7 61 661 53 1.500000e+00 0.521 faster 0 8.279972e+04 8.280208e+04 2.359
21 irregular 7 62 662 52 1 0.487 slower 1 8.280501e+04 8.280694e+04 1.931
21 irregular 7 63 663 52 3 0.364 slower 1 8.281311e+04 8.281695e+04 3.846
21 irregular 7 64 664 53 1.500000e+00 0.498 slower 1 8.282143e+04 8.282414e+04 2.704
21 irregular 7 65 665 67 1 0.521 faster 1 8.283156e+04 8.283315e+04 1.587
21 irregular 7 66 666 66 2.500000e+00 0.598 faster 1 8.283517e+04 8.283900e+04 3.835
21 irregular 7 67 667 66 3 0.368 slower 0 8.284130e+04 8.284503e+04 3.729
21 irregular 7 68 668 67 2 0.418 faster 1 8.284856e+04 8.285129e+04 2.729
21 irregular 7 69 669 66 1 0.541 faster 1 8.285464e+04 8.285644e+04 1.806
21 irregular 7 70 670 54 3 0.118 slower 1 8.286179e+04 8.286628e+04 4.494
21 irregular 7 71 671 55 1.500000e+00 0.438 slower 1 8.286917e+04 8.287291e+04 3.739
21 irregular 7 72 672 65 2 0.129 none 2 8.287371e+04 8.287871e+04 4.999
21 irregular 7 73 673 65 1 0.143 slower 0 8.287952e+04 8.288143e+04 1.911
21 irregular 7 74 674 66 1 0.177 slower 0 8.288264e+04 8.288588e+04 3.244
21 irregular 7 75 675 67 2.500000e+00 0.495 slower 0 8.288745e+04 8.289059e+04 3.137
21 irregular 7 76 676 52 2 0.575 slower 1 8.289217e+04 8.289468e+04 2.515
21 irregular 7 77 677 53 2.500000e+00 0.349 slower 1 8.289617e+04 8.289923e+04 3.061
21 irregular 7 78 678 67 3 0.230 faster 1 8.290160e+04 8.290527e+04 3.677
21 irregular 7 79 679 54 2 0.596 faster 0 8.290843e+04 8.291115e+04 2.717
21 irregular 7 80 680 67 1 0.102 faster 1 8.291255e+04 8.291468e+04 2.130
21 irregular 7 81 681 53 2 0.340 faster 0 8.291654e+04 8.291956e+04 3.025
21 irregular 7 82 682 52 3 0.436 slower 1 8.292219e+04 8.292598e+04 3.789
21 irregular 7 83 683 53 2.500000e+00 0.296 slower 1 8.292731e+04 8.293041e+04 3.096
21 irregular 7 84 684 53 3 0.210 slower 1 8.293171e+04 8.293595e+04 4.239
21 irregular 7 85 685 54 2 0.418 faster 0 8.293799e+04 8.294088e+04 2.883
21 irregular 7 86 686 53 1 0.430 faster 0 8.294273e+04 8.294462e+04 1.884
21 irregular 7 87 687 68 2 0.408 faster 1 8.294621e+04 8.294887e+04 2.660
21 irregular 7 88 688 52 2 0.132 slower 1 8.295157e+04 8.295505e+04 3.485
21 irregular 7 89 689 67 3 0.496 faster 1 8.295728e+04 8.296121e+04 3.931
21 irregular 7 90 690 67 2.500000e+00 0.389 faster 1 8.296356e+04 8.296747e+04 3.905
21 irregular 7 91 691 54 2.500000e+00 0.168 faster 0 8.296934e+04 8.297260e+04 3.264
21 irregular 7 92 692 53 2.500000e+00 0.597 slower 1 8.297462e+04 8.297772e+04 3.097
21 irregular 7 93 693 53 3 0.190 slower 1 8.297956e+04 8.298316e+04 3.605
21 irregular 7 94 694 66 2.500000e+00 0.524 slower 0 8.298479e+04 8.298887e+04 4.081
21 irregular 7 95 695 67 3 0.485 slower 0 8.299047e+04 8.299409e+04 3.619
21 irregular 7 96 696 52 2.500000e+00 0.248 faster 0 8.299868e+04 8.300297e+04 4.288
21 irregular 7 97 697 51 3 0.220 slower 1 8.300546e+04 8.300924e+04 3.783
21 irregular 7 98 698 69 2.500000e+00 0.113 faster 1 8.301097e+04 8.301595e+04 4.979
21 irregular 7 99 699 52 1.500000e+00 0.123 faster 0 8.301982e+04 8.302206e+04 2.233
21 irregular 7 100 700 51 1 0.501 slower 1 8.302771e+04 8.303041e+04 2.698
21 regular 8 1 701 69 1.500000e+00 0.217 faster 1 8.316275e+04 8.316508e+04 2.334
21 regular 8 2 702 68 1.500000e+00 0.238 faster 1 8.316631e+04 8.316833e+04 2.021
21 regular 8 3 703 68 1.500000e+00 0.378 faster 1 8.316970e+04 8.317166e+04 1.961
21 regular 8 4 704 67 1.500000e+00 0.130 faster 1 8.317340e+04 8.317545e+04 2.047
21 regular 8 5 705 53 1.500000e+00 0.196 slower 1 8.317671e+04 8.317905e+04 2.339
21 regular 8 6 706 54 1.500000e+00 0.519 faster 0 8.318058e+04 8.318271e+04 2.137
21 regular 8 7 707 53 1.500000e+00 0.346 faster 0 8.318409e+04 8.318628e+04 2.188
21 regular 8 8 708 68 1.500000e+00 0.579 faster 1 8.318787e+04 8.319009e+04 2.217
21 regular 8 9 709 52 1.500000e+00 0.111 faster 0 8.319120e+04 8.319340e+04 2.202
21 regular 8 10 710 69 1.500000e+00 0.584 faster 1 8.319495e+04 8.319718e+04 2.232
21 regular 8 11 711 52 1.500000e+00 0.379 faster 0 8.319858e+04 8.320099e+04 2.405
21 regular 8 12 712 51 1.500000e+00 0.123 slower 1 8.320216e+04 8.320443e+04 2.263
21 regular 8 13 713 69 1.500000e+00 0.397 faster 1 8.320595e+04 8.320811e+04 2.159
21 regular 8 14 714 52 1.500000e+00 0.527 faster 0 8.320963e+04 8.321190e+04 2.272
21 regular 8 15 715 51 1.500000e+00 0.179 faster 0 8.321308e+04 8.321537e+04 2.288
21 regular 8 16 716 70 1.500000e+00 0.335 faster 1 8.321671e+04 8.321884e+04 2.130
21 regular 8 17 717 50 1.500000e+00 0.274 slower 1 8.322011e+04 8.322228e+04 2.171
21 regular 8 18 718 69 1.500000e+00 0.231 faster 1 8.322356e+04 8.322588e+04 2.324
21 regular 8 19 719 69 1.500000e+00 0.420 faster 1 8.322730e+04 8.322958e+04 2.279
21 regular 8 20 720 52 1.500000e+00 0.341 faster 0 8.323093e+04 8.323326e+04 2.331
21 regular 8 21 721 69 1.500000e+00 0.507 faster 1 8.323477e+04 8.323707e+04 2.290
21 regular 8 22 722 51 1.500000e+00 0.148 slower 1 8.323819e+04 8.324035e+04 2.151
21 regular 8 23 723 68 1.500000e+00 0.258 faster 1 8.324163e+04 8.324390e+04 2.269
21 regular 8 24 724 68 1.500000e+00 0.107 faster 1 8.324497e+04 8.324700e+04 2.033
21 regular 8 25 725 67 1.500000e+00 0.276 faster 1 8.324826e+04 8.325044e+04 2.182
21 regular 8 26 726 67 1.500000e+00 0.136 faster 1 8.325156e+04 8.325371e+04 2.145
21 regular 8 27 727 66 1.500000e+00 0.450 faster 1 8.325516e+04 8.325727e+04 2.109
21 regular 8 28 728 54 1.500000e+00 0.290 slower 1 8.325859e+04 8.326118e+04 2.590
21 regular 8 29 729 55 1.500000e+00 0.111 faster 0 8.326246e+04 8.326471e+04 2.256
21 regular 8 30 730 54 1.500000e+00 0.532 faster 0 8.326621e+04 8.326836e+04 2.153
21 regular 8 31 731 53 1.500000e+00 0.303 faster 0 8.326967e+04 8.327179e+04 2.116
21 regular 8 32 732 52 1.500000e+00 0.393 faster 0 8.327321e+04 8.327555e+04 2.334
21 regular 8 33 733 51 1.500000e+00 0.117 slower 1 8.327672e+04 8.327921e+04 2.488
21 regular 8 34 734 69 1.500000e+00 0.167 faster 1 8.328040e+04 8.328252e+04 2.121
21 regular 8 35 735 68 1.500000e+00 0.435 faster 1 8.328404e+04 8.328625e+04 2.210
21 regular 8 36 736 52 1.500000e+00 0.429 faster 0 8.328770e+04 8.328993e+04 2.232
21 regular 8 37 737 51 1.500000e+00 0.261 slower 1 8.329120e+04 8.329407e+04 2.878
21 regular 8 38 738 68 1.500000e+00 0.278 faster 1 8.329537e+04 8.329811e+04 2.734
21 regular 8 39 739 68 1.500000e+00 0.185 faster 1 8.329933e+04 8.330191e+04 2.584
21 regular 8 40 740 67 1.500000e+00 0.270 faster 1 8.330342e+04 8.330559e+04 2.175
21 regular 8 41 741 67 1.500000e+00 0.309 slower 0 8.330693e+04 8.331018e+04 3.256
21 regular 8 42 742 52 1.500000e+00 0.470 slower 1 8.331177e+04 8.331388e+04 2.110
21 regular 8 43 743 67 1.500000e+00 0.129 slower 0 8.331500e+04 8.331782e+04 2.816
21 regular 8 44 744 68 1.500000e+00 0.111 faster 1 8.331856e+04 8.332074e+04 2.183
21 regular 8 45 745 68 1.500000e+00 0.379 faster 1 8.332212e+04 8.332422e+04 2.093
21 regular 8 46 746 67 1.500000e+00 0.547 faster 1 8.332577e+04 8.332785e+04 2.074
21 regular 8 47 747 53 1.500000e+00 0.451 faster 0 8.332941e+04 8.333193e+04 2.518
21 regular 8 48 748 68 1.500000e+00 0.175 slower 0 8.333320e+04 8.333551e+04 2.311
21 regular 8 49 749 69 1.500000e+00 0.497 faster 1 8.333700e+04 8.333937e+04 2.365
21 regular 8 50 750 52 1.500000e+00 0.141 slower 1 8.334050e+04 8.334265e+04 2.145
21 regular 8 51 751 52 1.500000e+00 0.429 slower 1 8.334406e+04 8.334647e+04 2.410
21 regular 8 52 752 67 1.500000e+00 0.147 faster 1 8.334771e+04 8.334986e+04 2.156
21 regular 8 53 753 53 1.500000e+00 0.364 faster 0 8.335125e+04 8.335332e+04 2.068
21 regular 8 54 754 52 1.500000e+00 0.241 faster 0 8.335463e+04 8.335692e+04 2.290
21 regular 8 55 755 69 1.500000e+00 0.190 faster 1 8.335815e+04 8.336025e+04 2.101
21 regular 8 56 756 68 1.500000e+00 0.575 faster 1 8.336183e+04 8.336393e+04 2.094
21 regular 8 57 757 68 1.500000e+00 0.113 faster 1 8.336531e+04 8.336762e+04 2.318
21 regular 8 58 758 53 1.500000e+00 0.204 slower 1 8.336891e+04 8.337115e+04 2.238
21 regular 8 59 759 53 1.500000e+00 0.286 faster 0 8.337257e+04 8.337522e+04 2.654
21 regular 8 60 760 68 1.500000e+00 0.210 slower 0 8.337688e+04 8.337922e+04 2.341
21 regular 8 61 761 51 1.500000e+00 0.495 slower 1 8.338122e+04 8.338334e+04 2.118
21 regular 8 62 762 52 1.500000e+00 0.228 faster 0 8.338465e+04 8.338706e+04 2.416
21 regular 8 63 763 51 1.500000e+00 0.512 faster 0 8.338899e+04 8.339113e+04 2.138
21 regular 8 64 764 70 1.500000e+00 0.260 faster 1 8.339296e+04 8.339516e+04 2.205
21 regular 8 65 765 70 1.500000e+00 0.393 faster 1 8.339654e+04 8.339870e+04 2.157
21 regular 8 66 766 69 1.500000e+00 0.547 faster 1 8.340021e+04 8.340275e+04 2.532
21 regular 8 67 767 51 1.500000e+00 0.504 faster 0 8.340426e+04 8.340673e+04 2.473
21 regular 8 68 768 50 1.500000e+00 0.389 slower 1 8.340818e+04 8.341050e+04 2.322
21 regular 8 69 769 51 1.500000e+00 0.500 faster 0 8.341283e+04 8.341590e+04 3.067
21 regular 8 70 770 50 1.500000e+00 0.463 slower 1 8.341746e+04 8.341967e+04 2.211
21 regular 8 71 771 50 1.500000e+00 0.581 slower 1 8.342127e+04 8.342337e+04 2.101
21 regular 8 72 772 51 1.500000e+00 0.593 slower 1 8.342550e+04 8.342750e+04 1.997
21 regular 8 73 773 69 1.500000e+00 0.318 faster 1 8.342891e+04 8.343116e+04 2.248
21 regular 8 74 774 68 1.500000e+00 0.233 faster 1 8.343247e+04 8.343462e+04 2.144
21 regular 8 75 775 52 1.500000e+00 0.324 slower 1 8.343656e+04 8.343943e+04 2.877
21 regular 8 76 776 67 1.500000e+00 0.545 faster 1 8.344137e+04 8.344366e+04 2.284
21 regular 8 77 777 67 1.500000e+00 0.228 slower 0 8.344512e+04 8.344737e+04 2.246
21 regular 8 78 778 52 1.500000e+00 0.211 faster 0 8.344948e+04 8.345174e+04 2.254
21 regular 8 79 779 51 1.500000e+00 0.279 faster 0 8.345366e+04 8.345606e+04 2.399
21 regular 8 80 780 50 1.500000e+00 0.142 slower 1 8.345776e+04 8.345982e+04 2.058
21 regular 8 81 781 51 1.500000e+00 0.528 slower 1 8.346146e+04 8.346351e+04 2.049
21 regular 8 82 782 69 1.500000e+00 0.413 slower 0 8.346494e+04 8.346702e+04 2.079
21 regular 8 83 783 70 1.500000e+00 0.517 faster 1 8.346863e+04 8.347062e+04 1.990
21 regular 8 84 784 51 1.500000e+00 0.404 slower 1 8.347216e+04 8.347446e+04 2.299
21 regular 8 85 785 69 1.500000e+00 0.325 faster 1 8.347590e+04 8.347817e+04 2.271
21 regular 8 86 786 52 1.500000e+00 0.346 faster 0 8.347970e+04 8.348191e+04 2.215
21 regular 8 87 787 69 1.500000e+00 0.397 faster 1 8.348353e+04 8.348578e+04 2.257
21 regular 8 88 788 69 1.500000e+00 0.344 faster 1 8.348732e+04 8.348950e+04 2.178
21 regular 8 89 789 68 1.500000e+00 0.138 faster 1 8.349137e+04 8.349361e+04 2.239
21 regular 8 90 790 52 1.500000e+00 0.449 slower 1 8.349470e+04 8.349823e+04 3.536
21 regular 8 91 791 53 1.500000e+00 0.111 slower 1 8.349898e+04 8.350111e+04 2.130
21 regular 8 92 792 67 1.500000e+00 0.288 faster 1 8.350260e+04 8.350537e+04 2.766
21 regular 8 93 793 54 1.500000e+00 0.325 faster 0 8.350763e+04 8.351068e+04 3.054
21 regular 8 94 794 67 1.500000e+00 0.584 faster 1 8.351241e+04 8.351467e+04 2.253
21 regular 8 95 795 67 1.500000e+00 0.354 faster 1 8.351672e+04 8.351884e+04 2.116
21 regular 8 96 796 54 1.500000e+00 0.192 slower 1 8.352054e+04 8.352265e+04 2.108
21 regular 8 97 797 54 1.500000e+00 0.481 slower 1 8.352585e+04 8.352878e+04 2.924
21 regular 8 98 798 55 1.500000e+00 0.425 faster 0 8.353040e+04 8.353249e+04 2.091
21 regular 8 99 799 54 1.500000e+00 0.204 slower 1 8.353443e+04 8.353658e+04 2.153
21 regular 8 100 800 66 1.500000e+00 0.123 faster 1 8.353900e+04 8.354114e+04 2.144
21 irregular 9 1 801 65 1 0.218 slower 0 8.355633e+04 8.355975e+04 3.420
21 irregular 9 2 802 54 2 0.545 slower 1 8.356140e+04 8.356436e+04 2.957
21 irregular 9 3 803 66 2.500000e+00 0.389 slower 0 8.356629e+04 8.356959e+04 3.300
21 irregular 9 4 804 67 2 0.312 slower 0 8.357113e+04 8.357383e+04 2.705
21 irregular 9 5 805 52 1.500000e+00 0.493 faster 0 8.357634e+04 8.357882e+04 2.488
21 irregular 9 6 806 69 2.500000e+00 0.266 faster 1 8.358149e+04 8.358470e+04 3.209
21 irregular 9 7 807 68 1.500000e+00 0.136 faster 1 8.358628e+04 8.358847e+04 2.190
21 irregular 9 8 808 52 1 0.582 slower 1 8.359168e+04 8.359354e+04 1.869
21 irregular 9 9 809 53 1.500000e+00 0.236 faster 0 8.359517e+04 8.359804e+04 2.871
21 irregular 9 10 810 68 2.500000e+00 0.364 slower 0 8.359957e+04 8.360270e+04 3.129
21 irregular 9 11 811 69 1.500000e+00 0.142 faster 1 8.360410e+04 8.360642e+04 2.326
21 irregular 9 12 812 51 1.500000e+00 0.288 slower 1 8.360811e+04 8.361188e+04 3.772
21 irregular 9 13 813 52 3 0.239 slower 1 8.361369e+04 8.361743e+04 3.739
21 irregular 9 14 814 68 2 0.244 faster 1 8.362018e+04 8.362290e+04 2.723
21 irregular 9 15 815 53 1.500000e+00 0.251 slower 1 8.362499e+04 8.362812e+04 3.126
21 irregular 9 16 816 53 2 0.105 slower 1 8.363259e+04 8.363547e+04 2.877
21 irregular 9 17 817 66 3 0.396 faster 1 8.363725e+04 8.364135e+04 4.107
21 irregular 9 18 818 54 2.500000e+00 0.486 faster 0 8.364341e+04 8.364687e+04 3.466
21 irregular 9 19 819 67 2.500000e+00 0.290 slower 0 8.364887e+04 8.365207e+04 3.203
21 irregular 9 20 820 68 1.500000e+00 0.201 slower 0 8.365397e+04 8.365654e+04 2.565
21 irregular 9 21 821 51 3 0.327 slower 1 8.365788e+04 8.366172e+04 3.836
21 irregular 9 22 822 68 3 0.314 slower 0 8.366302e+04 8.366730e+04 4.285
21 irregular 9 23 823 69 2.500000e+00 0.367 slower 0 8.366833e+04 8.367159e+04 3.258
21 irregular 9 24 824 70 2 0.314 faster 1 8.367291e+04 8.367556e+04 2.648
21 irregular 9 25 825 50 1 0.113 slower 1 8.367675e+04 8.367855e+04 1.798
21 irregular 9 26 826 51 3 0.155 slower 1 8.368001e+04 8.368374e+04 3.729
21 irregular 9 27 827 69 3 0.226 faster 1 8.368460e+04 8.368881e+04 4.204
21 irregular 9 28 828 68 2.500000e+00 0.113 faster 1 8.368960e+04 8.369289e+04 3.292
21 irregular 9 29 829 52 2 0.150 faster 0 8.369414e+04 8.369686e+04 2.713
21 irregular 9 30 830 69 2 0.257 faster 1 8.369853e+04 8.370124e+04 2.705
21 irregular 9 31 831 68 3 0.580 faster 1 8.370307e+04 8.370754e+04 4.473
21 irregular 9 32 832 68 3 0.368 faster 1 8.370913e+04 8.371302e+04 3.886
21 irregular 9 33 833 53 3 0.401 slower 1 8.371541e+04 8.372006e+04 4.649
21 irregular 9 34 834 53 1 0.425 slower 1 8.372191e+04 8.372444e+04 2.531
21 irregular 9 35 835 66 1.500000e+00 0.340 faster 1 8.372609e+04 8.372831e+04 2.224
21 irregular 9 36 836 54 2.500000e+00 0.532 faster 0 8.373016e+04 8.373378e+04 3.622
21 irregular 9 37 837 67 2 0.420 faster 1 8.373486e+04 8.373895e+04 4.089
21 irregular 9 38 838 54 2 0.599 slower 1 8.374055e+04 8.374385e+04 3.300
21 irregular 9 39 839 66 2 0.499 slower 0 8.374605e+04 8.374908e+04 3.032
21 irregular 9 40 840 53 1.500000e+00 0.595 slower 1 8.375083e+04 8.375394e+04 3.115
21 irregular 9 41 841 66 3 0.234 faster 1 8.375552e+04 8.376022e+04 4.693
21 irregular 9 42 842 66 1.500000e+00 0.166 faster 1 8.376106e+04 8.376332e+04 2.261
21 irregular 9 43 843 55 2 0.460 faster 0 8.376506e+04 8.376838e+04 3.314
21 irregular 9 44 844 66 1 0.253 faster 1 8.376984e+04 8.377159e+04 1.753
21 irregular 9 45 845 54 2.500000e+00 0.387 faster 0 8.377307e+04 8.377644e+04 3.366
21 irregular 9 46 846 67 2.500000e+00 0.182 slower 0 8.377796e+04 8.378122e+04 3.265
21 irregular 9 47 847 68 2 0.226 faster 1 8.378212e+04 8.378470e+04 2.576
21 irregular 9 48 848 53 1.500000e+00 0.266 faster 0 8.378608e+04 8.378838e+04 2.291
21 irregular 9 49 849 52 1 0.338 faster 0 8.379023e+04 8.379204e+04 1.812
21 irregular 9 50 850 51 1.500000e+00 0.430 faster 0 8.379349e+04 8.379658e+04 3.098
21 irregular 9 51 851 50 1 0.308 slower 1 8.379757e+04 8.379959e+04 2.028
21 irregular 9 52 852 50 2.500000e+00 0.271 slower 1 8.380140e+04 8.380513e+04 3.732
21 irregular 9 53 853 51 1 0.226 faster 0 8.380604e+04 8.380834e+04 2.302
21 irregular 9 54 854 50 1.500000e+00 0.102 slower 1 8.380963e+04 8.381290e+04 3.276
21 irregular 9 55 855 70 1.500000e+00 0.275 faster 1 8.381453e+04 8.381687e+04 2.341
21 irregular 9 56 856 51 2.500000e+00 0.389 slower 1 8.381836e+04 8.382164e+04 3.277
21 irregular 9 57 857 69 2.500000e+00 0.434 faster 1 8.382319e+04 8.382654e+04 3.347
21 irregular 9 58 858 68 3 0.588 faster 1 8.382914e+04 8.383377e+04 4.631
21 irregular 9 59 859 68 1.500000e+00 0.265 faster 1 8.383571e+04 8.383783e+04 2.121
21 irregular 9 60 860 53 2.500000e+00 0.571 slower 1 8.383976e+04 8.384295e+04 3.194
21 irregular 9 61 861 53 1 0.141 faster 0 8.384480e+04 8.384708e+04 2.283
21 irregular 9 62 862 68 3 0.396 faster 1 8.384873e+04 8.385305e+04 4.322
21 irregular 9 63 863 53 2 0.214 faster 0 8.385451e+04 8.385714e+04 2.632
21 irregular 9 64 864 68 2 0.585 faster 1 8.385919e+04 8.386196e+04 2.773
21 irregular 9 65 865 68 1 0.396 faster 1 8.386473e+04 8.386658e+04 1.851
21 irregular 9 66 866 67 1.500000e+00 0.358 faster 1 8.386902e+04 8.387118e+04 2.159
21 irregular 9 67 867 67 1 0.591 slower 0 8.387304e+04 8.387508e+04 2.040
21 irregular 9 68 868 52 2.500000e+00 0.248 slower 1 8.387702e+04 8.388023e+04 3.212
21 irregular 9 69 869 67 1 0.216 faster 1 8.388820e+04 8.389033e+04 2.133
21 irregular 9 70 870 53 1 0.247 slower 1 8.389158e+04 8.389321e+04 1.624
21 irregular 9 71 871 54 1.500000e+00 0.156 faster 0 8.389456e+04 8.389670e+04 2.136
21 irregular 9 72 872 67 1 0.366 slower 0 8.389837e+04 8.390010e+04 1.735
21 irregular 9 73 873 68 2.500000e+00 0.165 faster 1 8.390164e+04 8.390524e+04 3.599
21 irregular 9 74 874 52 2.500000e+00 0.596 slower 1 8.390728e+04 8.391042e+04 3.147
21 irregular 9 75 875 67 1.500000e+00 0.428 faster 1 8.391205e+04 8.391425e+04 2.193
21 irregular 9 76 876 67 1 0.538 faster 1 8.391627e+04 8.391836e+04 2.094
21 irregular 9 77 877 54 1 0.195 slower 1 8.392037e+04 8.392204e+04 1.666
21 irregular 9 78 878 66 3 0.401 slower 0 8.392411e+04 8.392783e+04 3.720
21 irregular 9 79 879 53 3 0.106 none 2 8.393161e+04 8.393761e+04 6.000
21 irregular 9 80 880 53 1 0.518 slower 1 8.393907e+04 8.394095e+04 1.884
21 irregular 9 81 881 54 3 0.498 faster 0 8.394353e+04 8.394766e+04 4.130
21 irregular 9 82 882 67 2 0.123 faster 1 8.395033e+04 8.395311e+04 2.779
21 irregular 9 83 883 53 2.500000e+00 0.414 faster 0 8.395420e+04 8.395759e+04 3.390
21 irregular 9 84 884 68 1 0.400 faster 1 8.396191e+04 8.396354e+04 1.630
21 irregular 9 85 885 53 2 0.402 faster 0 8.396462e+04 8.396730e+04 2.683
21 irregular 9 86 886 52 2 0.257 faster 0 8.396948e+04 8.397308e+04 3.603
21 irregular 9 87 887 51 3 0.133 slower 1 8.397570e+04 8.397956e+04 3.858
21 irregular 9 88 888 69 1 0.586 faster 1 8.398148e+04 8.398350e+04 2.018
21 irregular 9 89 889 52 3 0.279 slower 1 8.398490e+04 8.398868e+04 3.781
21 irregular 9 90 890 68 2 0.504 faster 1 8.399030e+04 8.399300e+04 2.703
21 irregular 9 91 891 53 2.500000e+00 0.568 faster 0 8.399492e+04 8.399810e+04 3.181
21 irregular 9 92 892 68 2.500000e+00 0.284 faster 1 8.400046e+04 8.400506e+04 4.606
21 irregular 9 93 893 52 2 0.208 slower 1 8.400639e+04 8.400910e+04 2.709
21 irregular 9 94 894 53 3 0.488 slower 1 8.401089e+04 8.401468e+04 3.792
21 irregular 9 95 895 67 3 0.260 faster 1 8.401649e+04 8.402070e+04 4.210
21 irregular 9 96 896 54 2 0.598 faster 0 8.402256e+04 8.402570e+04 3.141
21 irregular 9 97 897 53 3 0.448 slower 1 8.402883e+04 8.403249e+04 3.660
21 irregular 9 98 898 67 1 0.267 faster 1 8.403592e+04 8.403780e+04 1.875
21 irregular 9 99 899 54 1.500000e+00 0.536 faster 0 8.404449e+04 8.404743e+04 2.938
21 irregular 9 100 900 67 1.500000e+00 0.308 faster 1 8.404880e+04 8.405137e+04 2.568
21 regular 10 1 901 53 3 0.489 faster 0 8.420805e+04 8.421215e+04 4.098
21 regular 10 2 902 68 3 0.462 faster 1 8.421358e+04 8.421719e+04 3.611
21 regular 10 3 903 53 3 0.365 faster 0 8.421912e+04 8.422269e+04 3.570
21 regular 10 4 904 52 3 0.242 faster 0 8.422395e+04 8.422756e+04 3.611
21 regular 10 5 905 51 3 0.164 faster 0 8.422871e+04 8.423247e+04 3.760
21 regular 10 6 906 70 3 0.560 faster 1 8.423407e+04 8.423790e+04 3.828
21 regular 10 7 907 70 3 0.309 faster 1 8.423931e+04 8.424295e+04 3.644
21 regular 10 8 908 51 3 0.505 slower 1 8.424448e+04 8.424834e+04 3.864
21 regular 10 9 909 69 3 0.558 faster 1 8.424990e+04 8.425359e+04 3.692
21 regular 10 10 910 68 3 0.263 faster 1 8.425505e+04 8.425862e+04 3.566
21 regular 10 11 911 52 3 0.156 faster 0 8.425986e+04 8.426383e+04 3.972
21 regular 10 12 912 69 3 0.463 faster 1 8.426538e+04 8.426914e+04 3.758
21 regular 10 13 913 52 3 0.143 faster 0 8.427040e+04 8.427463e+04 4.230
21 regular 10 14 914 51 3 0.391 slower 1 8.427566e+04 8.427937e+04 3.710
21 regular 10 15 915 51 3 0.473 slower 1 8.428104e+04 8.428473e+04 3.687
21 regular 10 16 916 52 3 0.468 slower 1 8.428625e+04 8.428989e+04 3.641
21 regular 10 17 917 52 3 0.554 faster 0 8.429164e+04 8.429594e+04 4.306
21 regular 10 18 918 51 3 0.165 slower 1 8.429715e+04 8.430087e+04 3.726
21 regular 10 19 919 68 3 0.231 faster 1 8.430213e+04 8.430593e+04 3.797
21 regular 10 20 920 52 3 0.317 slower 1 8.430723e+04 8.431089e+04 3.660
21 regular 10 21 921 67 3 0.523 faster 1 8.431250e+04 8.431617e+04 3.669
21 regular 10 22 922 53 3 0.261 faster 0 8.431762e+04 8.432146e+04 3.845
21 regular 10 23 923 68 3 0.493 faster 1 8.432310e+04 8.432701e+04 3.910
21 regular 10 24 924 67 3 0.571 faster 1 8.432877e+04 8.433242e+04 3.648
21 regular 10 25 925 53 3 0.505 faster 0 8.433576e+04 8.433940e+04 3.644
21 regular 10 26 926 52 3 0.528 faster 0 8.434137e+04 8.434509e+04 3.721
21 regular 10 27 927 51 3 0.478 faster 0 8.434692e+04 8.435063e+04 3.715
21 regular 10 28 928 70 3 0.337 faster 1 8.435203e+04 8.435564e+04 3.612
21 regular 10 29 929 51 3 0.457 slower 1 8.435706e+04 8.436082e+04 3.760
21 regular 10 30 930 69 3 0.477 faster 1 8.436230e+04 8.436607e+04 3.766
21 regular 10 31 931 68 3 0.405 faster 1 8.436748e+04 8.437113e+04 3.651
21 regular 10 32 932 68 3 0.164 faster 1 8.437234e+04 8.437602e+04 3.683
21 regular 10 33 933 67 3 0.280 faster 1 8.437727e+04 8.438090e+04 3.634
21 regular 10 34 934 53 3 0.252 slower 1 8.438226e+04 8.438609e+04 3.825
21 regular 10 35 935 54 3 0.541 slower 1 8.438765e+04 8.439268e+04 5.026
21 regular 10 36 936 66 3 0.237 faster 1 8.439405e+04 8.439834e+04 4.291
21 regular 10 37 937 55 3 0.198 faster 0 8.439960e+04 8.440325e+04 3.657
21 regular 10 38 938 66 3 0.385 faster 1 8.440474e+04 8.440828e+04 3.537
21 regular 10 39 939 66 3 0.558 faster 1 8.440992e+04 8.441353e+04 3.606
21 regular 10 40 940 55 3 0.473 faster 0 8.441540e+04 8.441895e+04 3.555
21 regular 10 41 941 66 3 0.316 faster 1 8.442033e+04 8.442396e+04 3.631
21 regular 10 42 942 66 3 0.245 faster 1 8.442541e+04 8.442892e+04 3.512
21 regular 10 43 943 55 3 0.323 faster 0 8.443076e+04 8.443436e+04 3.600
21 regular 10 44 944 54 3 0.403 faster 0 8.443603e+04 8.444074e+04 4.709
21 regular 10 45 945 67 3 0.276 faster 1 8.444206e+04 8.444581e+04 3.758
21 regular 10 46 946 67 3 0.438 slower 0 8.444792e+04 8.445236e+04 4.439
21 regular 10 47 947 68 3 0.201 slower 0 8.445403e+04 8.445781e+04 3.786
21 regular 10 48 948 51 3 0.152 slower 1 8.445955e+04 8.446325e+04 3.703
21 regular 10 49 949 68 3 0.187 slower 0 8.446460e+04 8.446924e+04 4.639
21 regular 10 50 950 51 3 0.422 slower 1 8.447169e+04 8.447543e+04 3.736
21 regular 10 51 951 69 3 0.545 faster 1 8.447748e+04 8.448113e+04 3.650
21 regular 10 52 952 68 3 0.322 faster 1 8.448295e+04 8.448668e+04 3.729
21 regular 10 53 953 52 3 0.579 faster 0 8.448872e+04 8.449250e+04 3.783
21 regular 10 54 954 51 3 0.327 faster 0 8.449491e+04 8.449858e+04 3.673
21 regular 10 55 955 50 3 0.411 faster 0 8.450065e+04 8.450447e+04 3.817
21 regular 10 56 956 71 3 0.291 faster 1 8.450540e+04 8.450913e+04 3.727
21 regular 10 57 957 50 3 0.389 slower 1 8.451054e+04 8.451479e+04 4.252
21 regular 10 58 958 50 3 0.300 slower 1 8.451615e+04 8.452066e+04 4.508
21 regular 10 59 959 51 3 0.170 slower 1 8.452236e+04 8.452687e+04 4.510
21 regular 10 60 960 51 3 0.457 faster 0 8.452841e+04 8.453209e+04 3.676
21 regular 10 61 961 70 3 0.514 faster 1 8.453365e+04 8.453733e+04 3.682
21 regular 10 62 962 69 3 0.498 faster 1 8.453911e+04 8.454273e+04 3.618
21 regular 10 63 963 69 3 0.218 faster 1 8.454422e+04 8.454874e+04 4.517
21 regular 10 64 964 68 3 0.424 faster 1 8.455019e+04 8.455493e+04 4.744
21 regular 10 65 965 52 3 0.114 slower 1 8.455614e+04 8.455981e+04 3.673
21 regular 10 66 966 53 3 0.346 faster 0 8.456128e+04 8.456513e+04 3.851
21 regular 10 67 967 68 3 0.180 faster 1 8.456596e+04 8.456965e+04 3.696
21 regular 10 68 968 68 3 0.331 faster 1 8.457140e+04 8.457511e+04 3.707
21 regular 10 69 969 67 3 0.408 faster 1 8.457657e+04 8.458085e+04 4.283
21 regular 10 70 970 67 3 0.220 faster 1 8.458212e+04 8.458577e+04 3.645
21 regular 10 71 971 66 3 0.171 faster 1 8.458703e+04 8.459079e+04 3.759
21 regular 10 72 972 66 3 0.120 faster 1 8.459205e+04 8.459581e+04 3.768
21 regular 10 73 973 65 3 0.516 faster 1 8.459742e+04 8.460121e+04 3.784
21 regular 10 74 974 55 3 0.239 faster 0 8.460278e+04 8.460673e+04 3.949
21 regular 10 75 975 54 3 0.176 faster 0 8.460805e+04 8.461215e+04 4.101
21 regular 10 76 976 67 3 0.350 slower 0 8.461378e+04 8.461775e+04 3.970
21 regular 10 77 977 52 3 0.392 faster 0 8.462037e+04 8.462412e+04 3.746
21 regular 10 78 978 51 3 0.143 faster 0 8.462489e+04 8.462889e+04 3.993
21 regular 10 79 979 50 3 0.588 slower 1 8.463179e+04 8.463545e+04 3.659
21 regular 10 80 980 51 3 0.406 slower 1 8.463649e+04 8.464044e+04 3.949
21 regular 10 81 981 51 3 0.571 slower 1 8.464216e+04 8.464756e+04 5.395
21 regular 10 82 982 68 3 0.226 faster 1 8.464952e+04 8.465341e+04 3.890
21 regular 10 83 983 68 3 0.430 faster 1 8.465572e+04 8.465946e+04 3.746
21 regular 10 84 984 67 3 0.305 faster 1 8.466087e+04 8.466533e+04 4.465
21 regular 10 85 985 53 3 0.253 faster 0 8.466670e+04 8.467079e+04 4.094
21 regular 10 86 986 52 3 0.305 slower 1 8.467271e+04 8.467679e+04 4.082
21 regular 10 87 987 53 3 0.327 slower 1 8.467842e+04 8.468239e+04 3.967
21 regular 10 88 988 67 3 0.354 faster 1 8.468339e+04 8.468714e+04 3.751
21 regular 10 89 989 66 3 0.344 faster 1 8.468894e+04 8.469260e+04 3.657
21 regular 10 90 990 66 3 0.147 faster 1 8.469338e+04 8.469706e+04 3.681
21 regular 10 91 991 65 3 0.416 faster 1 8.469811e+04 8.470196e+04 3.843
21 regular 10 92 992 65 3 0.265 slower 0 8.470435e+04 8.470970e+04 5.351
21 regular 10 93 993 54 3 0.177 faster 0 8.471087e+04 8.471540e+04 4.530
21 regular 10 94 994 67 3 0.196 slower 0 8.471671e+04 8.472215e+04 5.440
21 regular 10 95 995 52 3 0.488 faster 0 8.472399e+04 8.472777e+04 3.771
21 regular 10 96 996 51 3 0.367 faster 0 8.472926e+04 8.473356e+04 4.296
21 regular 10 97 997 70 3 0.427 faster 1 8.473521e+04 8.473889e+04 3.676
21 regular 10 98 998 51 3 0.388 slower 1 8.474029e+04 8.474417e+04 3.877
21 regular 10 99 999 69 3 0.335 faster 1 8.474555e+04 8.474929e+04 3.738
21 regular 10 100 1000 52 3 0.427 faster 0 8.475086e+04 8.475463e+04 3.773
