subNo condition blockNo trialNo trialID currentFrequency cueTargetInterval randomPreCueInterval response responseAccuracy startTime responseTime RT
12 regular 1 1 1 49 3 0.404 slower 1 3.036822e+06 3.036826e+06 3.827
12 regular 1 2 2 71 3 0.408 slower 0 3.036827e+06 3.036831e+06 4.525
12 regular 1 3 3 73 3 0.215 faster 1 3.036833e+06 3.036836e+06 3.868
12 regular 1 4 4 71 3 0.298 faster 1 3.036837e+06 3.036841e+06 3.929
12 regular 1 5 5 71 3 0.574 faster 1 3.036842e+06 3.036847e+06 4.419
12 regular 1 6 6 51 3 0.519 slower 1 3.036848e+06 3.036852e+06 3.740
12 regular 1 7 7 51 3 0.324 slower 1 3.036853e+06 3.036857e+06 3.696
12 regular 1 8 8 53 3 0.239 faster 0 3.036858e+06 3.036862e+06 4.394
12 regular 1 9 9 51 3 0.137 slower 1 3.036863e+06 3.036867e+06 3.694
12 regular 1 10 10 69 3 0.380 faster 1 3.036868e+06 3.036871e+06 3.707
12 regular 1 11 11 53 3 0.197 slower 1 3.036872e+06 3.036876e+06 3.907
12 regular 1 12 12 67 3 0.328 faster 1 3.036877e+06 3.036881e+06 3.847
12 regular 1 13 13 66 3 0.473 faster 1 3.036882e+06 3.036886e+06 4.231
12 regular 1 14 14 66 3 0.152 faster 1 3.036888e+06 3.036892e+06 3.944
12 regular 1 15 15 65 3 0.472 faster 1 3.036893e+06 3.036897e+06 3.987
12 regular 1 16 16 65 3 0.568 faster 1 3.036899e+06 3.036903e+06 4.847
12 regular 1 17 17 64 3 0.527 faster 1 3.036905e+06 3.036909e+06 4.127
12 regular 1 18 18 64 3 0.260 slower 0 3.036910e+06 3.036913e+06 3.751
12 regular 1 19 19 65 3 0.431 faster 1 3.036914e+06 3.036918e+06 3.700
12 regular 1 20 20 64 3 0.206 faster 1 3.036919e+06 3.036923e+06 3.863
12 regular 1 21 21 64 3 0.588 faster 1 3.036924e+06 3.036928e+06 3.871
12 regular 1 22 22 57 3 0.271 faster 0 3.036929e+06 3.036933e+06 3.986
12 regular 1 23 23 56 3 0.279 faster 0 3.036934e+06 3.036938e+06 3.858
12 regular 1 24 24 55 3 0.107 slower 1 3.036938e+06 3.036942e+06 3.669
12 regular 1 25 25 55 3 0.448 slower 1 3.036943e+06 3.036947e+06 3.762
12 regular 1 26 26 56 3 0.539 slower 1 3.036948e+06 3.036952e+06 3.765
12 regular 1 27 27 64 3 0.387 faster 1 3.036953e+06 3.036957e+06 3.658
12 regular 1 28 28 63 3 0.451 faster 1 3.036958e+06 3.036961e+06 3.856
12 regular 1 29 29 63 3 0.579 faster 1 3.036963e+06 3.036966e+06 3.773
12 regular 1 30 30 62 3 0.407 slower 0 3.036968e+06 3.036972e+06 4.129
12 regular 1 31 31 57 3 0.491 slower 1 3.036973e+06 3.036977e+06 4.188
12 regular 1 32 32 57 3 0.298 slower 1 3.036978e+06 3.036983e+06 4.530
12 regular 1 33 33 58 3 0.369 faster 0 3.036984e+06 3.036988e+06 4.062
12 regular 1 34 34 57 3 0.405 slower 1 3.036989e+06 3.036993e+06 3.746
12 regular 1 35 35 63 3 0.383 faster 1 3.036994e+06 3.036998e+06 3.994
12 regular 1 36 36 58 3 0.537 slower 1 3.036999e+06 3.037003e+06 3.928
12 regular 1 37 37 58 3 0.204 slower 1 3.037004e+06 3.037009e+06 5.132
12 regular 1 38 38 59 3 0.398 faster 0 3.037010e+06 3.037014e+06 4.295
12 regular 1 39 39 62 3 0.199 slower 0 3.037015e+06 3.037019e+06 4.239
12 regular 1 40 40 57 3 0.288 faster 0 3.037020e+06 3.037024e+06 3.758
12 regular 1 41 41 56 3 0.580 faster 0 3.037025e+06 3.037029e+06 3.728
12 regular 1 42 42 55 3 0.229 faster 0 3.037030e+06 3.037033e+06 3.834
12 regular 1 43 43 54 3 0.446 faster 0 3.037035e+06 3.037039e+06 4.087
12 regular 1 44 44 67 3 0.437 slower 0 3.037040e+06 3.037044e+06 3.825
12 regular 1 45 45 68 3 0.161 faster 1 3.037045e+06 3.037048e+06 3.962
12 regular 1 46 46 68 3 0.110 slower 0 3.037049e+06 3.037053e+06 4.132
12 regular 1 47 47 51 3 0.286 faster 0 3.037054e+06 3.037058e+06 3.826
12 regular 1 48 48 50 3 0.463 slower 1 3.037059e+06 3.037063e+06 3.764
12 regular 1 49 49 51 3 0.537 slower 1 3.037064e+06 3.037069e+06 4.395
12 regular 1 50 50 51 3 0.351 slower 1 3.037070e+06 3.037074e+06 3.976
12 regular 1 51 51 52 3 0.523 slower 1 3.037075e+06 3.037078e+06 3.748
12 regular 1 52 52 52 3 0.300 faster 0 3.037079e+06 3.037083e+06 3.890
12 regular 1 53 53 69 3 0.241 slower 0 3.037084e+06 3.037088e+06 4.172
12 regular 1 54 54 50 3 0.190 slower 1 3.037089e+06 3.037093e+06 3.664
12 regular 1 55 55 69 3 0.251 faster 1 3.037094e+06 3.037097e+06 3.768
12 regular 1 56 56 69 3 0.320 faster 1 3.037098e+06 3.037102e+06 3.739
12 regular 1 57 57 68 3 0.316 faster 1 3.037103e+06 3.037107e+06 3.621
12 regular 1 58 58 52 3 0.293 slower 1 3.037108e+06 3.037112e+06 3.960
12 regular 1 59 59 67 3 0.381 faster 1 3.037113e+06 3.037116e+06 3.660
12 regular 1 60 60 53 3 0.218 slower 1 3.037117e+06 3.037121e+06 4.213
12 regular 1 61 61 66 3 0.108 faster 1 3.037122e+06 3.037126e+06 3.995
12 regular 1 62 62 66 3 0.253 slower 0 3.037127e+06 3.037131e+06 3.789
12 regular 1 63 63 67 3 0.299 faster 1 3.037132e+06 3.037136e+06 3.796
12 regular 1 64 64 54 3 0.145 slower 1 3.037137e+06 3.037141e+06 4.505
12 regular 1 65 65 66 3 0.350 faster 1 3.037142e+06 3.037146e+06 3.856
12 regular 1 66 66 55 3 0.153 faster 0 3.037147e+06 3.037151e+06 3.794
12 regular 1 67 67 54 3 0.541 faster 0 3.037152e+06 3.037156e+06 3.896
12 regular 1 68 68 67 3 0.108 faster 1 3.037157e+06 3.037160e+06 3.795
12 regular 1 69 69 67 3 0.585 faster 1 3.037162e+06 3.037166e+06 4.002
12 regular 1 70 70 54 3 0.119 slower 1 3.037166e+06 3.037170e+06 3.732
12 regular 1 71 71 54 3 0.127 none 2 3.037171e+06 3.037177e+06 5.999
12 regular 1 72 72 54 3 0.400 slower 1 3.037178e+06 3.037182e+06 4.422
12 regular 1 73 73 65 3 0.238 faster 1 3.037183e+06 3.037188e+06 4.700
12 regular 1 74 74 65 3 0.380 slower 0 3.037189e+06 3.037193e+06 3.736
12 regular 1 75 75 54 3 0.247 faster 0 3.037194e+06 3.037197e+06 3.776
12 regular 1 76 76 67 3 0.455 faster 1 3.037198e+06 3.037202e+06 3.914
12 regular 1 77 77 66 3 0.322 faster 1 3.037203e+06 3.037207e+06 4.104
12 regular 1 78 78 66 3 0.585 faster 1 3.037209e+06 3.037213e+06 4.322
12 regular 1 79 79 65 3 0.199 faster 1 3.037214e+06 3.037218e+06 3.871
12 regular 1 80 80 55 3 0.185 faster 0 3.037218e+06 3.037222e+06 3.869
12 regular 1 81 81 54 3 0.407 slower 1 3.037223e+06 3.037227e+06 3.635
12 regular 1 82 82 55 3 0.100 faster 0 3.037228e+06 3.037231e+06 3.586
12 regular 1 83 83 54 3 0.299 faster 0 3.037232e+06 3.037236e+06 4.028
12 regular 1 84 84 53 3 0.138 faster 0 3.037237e+06 3.037241e+06 3.932
12 regular 1 85 85 68 3 0.164 faster 1 3.037242e+06 3.037245e+06 3.688
12 regular 1 86 86 52 3 0.172 slower 1 3.037246e+06 3.037250e+06 3.678
12 regular 1 87 87 67 3 0.249 faster 1 3.037251e+06 3.037255e+06 3.790
12 regular 1 88 88 67 3 0.164 faster 1 3.037255e+06 3.037259e+06 4.010
12 regular 1 89 89 66 3 0.236 faster 1 3.037260e+06 3.037264e+06 3.859
12 regular 1 90 90 66 3 0.515 slower 0 3.037265e+06 3.037269e+06 4.111
12 regular 1 91 91 53 3 0.335 faster 0 3.037270e+06 3.037274e+06 3.619
12 regular 1 92 92 52 3 0.167 faster 0 3.037275e+06 3.037279e+06 3.830
12 regular 1 93 93 69 3 0.402 faster 1 3.037280e+06 3.037284e+06 3.967
12 regular 1 94 94 52 3 0.167 faster 0 3.037285e+06 3.037289e+06 4.504
12 regular 1 95 95 69 3 0.408 slower 0 3.037290e+06 3.037294e+06 3.791
12 regular 1 96 96 50 3 0.462 slower 1 3.037295e+06 3.037299e+06 3.869
12 regular 1 97 97 50 3 0.228 slower 1 3.037300e+06 3.037305e+06 4.576
12 regular 1 98 98 69 3 0.304 faster 1 3.037306e+06 3.037310e+06 4.046
12 regular 1 99 99 69 3 0.450 faster 1 3.037311e+06 3.037315e+06 3.829
12 regular 1 100 100 52 3 0.331 faster 0 3.037315e+06 3.037319e+06 3.898
12 irregular 2 1 101 69 2 0.534 faster 1 3.037357e+06 3.037360e+06 3.037
12 irregular 2 2 102 51 3 0.142 faster 0 3.037361e+06 3.037365e+06 3.849
12 irregular 2 3 103 50 2 0.118 faster 0 3.037366e+06 3.037369e+06 2.952
12 irregular 2 4 104 71 1 0.438 faster 1 3.037370e+06 3.037372e+06 1.837
12 irregular 2 5 105 70 1.500000e+00 0.110 faster 1 3.037373e+06 3.037375e+06 2.178
12 irregular 2 6 106 70 2 0.364 slower 0 3.037377e+06 3.037380e+06 3.683
12 irregular 2 7 107 49 1.500000e+00 0.195 slower 1 3.037381e+06 3.037384e+06 2.523
12 irregular 2 8 108 50 3 0.510 slower 1 3.037385e+06 3.037389e+06 3.836
12 irregular 2 9 109 70 2.500000e+00 0.438 faster 1 3.037390e+06 3.037393e+06 3.247
12 irregular 2 10 110 69 3 0.591 faster 1 3.037394e+06 3.037398e+06 3.741
12 irregular 2 11 111 51 2 0.310 faster 0 3.037399e+06 3.037402e+06 3.124
12 irregular 2 12 112 70 3 0.386 faster 1 3.037403e+06 3.037407e+06 3.648
12 irregular 2 13 113 69 2 0.472 faster 1 3.037408e+06 3.037411e+06 2.971
12 irregular 2 14 114 51 3 0.490 slower 1 3.037412e+06 3.037416e+06 3.739
12 irregular 2 15 115 68 3 0.190 faster 1 3.037417e+06 3.037421e+06 4.001
12 irregular 2 16 116 68 3 0.480 faster 1 3.037422e+06 3.037426e+06 3.742
12 irregular 2 17 117 67 1.500000e+00 0.309 faster 1 3.037427e+06 3.037429e+06 2.211
12 irregular 2 18 118 53 1 0.166 faster 0 3.037430e+06 3.037431e+06 1.753
12 irregular 2 19 119 68 1 0.140 faster 1 3.037432e+06 3.037434e+06 1.692
12 irregular 2 20 120 67 2 0.403 slower 0 3.037435e+06 3.037438e+06 3.030
12 irregular 2 21 121 52 1.500000e+00 0.294 slower 1 3.037439e+06 3.037441e+06 2.265
12 irregular 2 22 122 52 2.500000e+00 0.434 slower 1 3.037442e+06 3.037446e+06 3.550
12 irregular 2 23 123 67 2.500000e+00 0.177 faster 1 3.037447e+06 3.037450e+06 3.062
12 irregular 2 24 124 53 1.500000e+00 0.483 faster 0 3.037451e+06 3.037453e+06 2.157
12 irregular 2 25 125 52 2 0.380 slower 1 3.037454e+06 3.037457e+06 2.783
12 irregular 2 26 126 67 1.500000e+00 0.380 slower 0 3.037458e+06 3.037461e+06 3.176
12 irregular 2 27 127 52 1 0.290 faster 0 3.037462e+06 3.037464e+06 1.939
12 irregular 2 28 128 69 2.500000e+00 0.326 slower 0 3.037465e+06 3.037469e+06 3.234
12 irregular 2 29 129 70 2.500000e+00 0.595 faster 1 3.037470e+06 3.037473e+06 3.153
12 irregular 2 30 130 50 1.500000e+00 0.409 faster 0 3.037474e+06 3.037476e+06 2.348
12 irregular 2 31 131 71 1.500000e+00 0.530 faster 1 3.037478e+06 3.037480e+06 2.105
12 irregular 2 32 132 50 3 0.360 slower 1 3.037481e+06 3.037485e+06 4.008
12 irregular 2 33 133 70 1 0.476 faster 1 3.037486e+06 3.037488e+06 1.780
12 irregular 2 34 134 69 1 0.590 faster 1 3.037489e+06 3.037491e+06 1.758
12 irregular 2 35 135 51 2.500000e+00 0.322 slower 1 3.037492e+06 3.037495e+06 3.562
12 irregular 2 36 136 68 2.500000e+00 0.142 faster 1 3.037496e+06 3.037499e+06 3.181
12 irregular 2 37 137 52 3 0.511 faster 0 3.037501e+06 3.037505e+06 4.321
12 irregular 2 38 138 69 2 0.467 faster 1 3.037506e+06 3.037509e+06 2.725
12 irregular 2 39 139 68 1 0.408 faster 1 3.037510e+06 3.037512e+06 2.262
12 irregular 2 40 140 52 1 0.315 faster 0 3.037513e+06 3.037515e+06 1.820
12 irregular 2 41 141 51 2.500000e+00 0.311 slower 1 3.037516e+06 3.037519e+06 3.192
12 irregular 2 42 142 52 1.500000e+00 0.538 faster 0 3.037520e+06 3.037523e+06 2.346
12 irregular 2 43 143 69 1 0.591 faster 1 3.037524e+06 3.037526e+06 1.881
12 irregular 2 44 144 51 3 0.517 slower 1 3.037527e+06 3.037531e+06 3.814
12 irregular 2 45 145 68 3 0.202 faster 1 3.037531e+06 3.037535e+06 3.976
12 irregular 2 46 146 52 1.500000e+00 0.506 faster 0 3.037537e+06 3.037539e+06 2.426
12 irregular 2 47 147 69 2 0.393 faster 1 3.037540e+06 3.037543e+06 2.991
12 irregular 2 48 148 68 3 0.282 faster 1 3.037544e+06 3.037548e+06 4.275
12 irregular 2 49 149 52 2 0.164 faster 0 3.037549e+06 3.037552e+06 3.064
12 irregular 2 50 150 51 2.500000e+00 0.230 faster 0 3.037553e+06 3.037557e+06 3.414
12 irregular 2 51 151 70 2.500000e+00 0.304 faster 1 3.037557e+06 3.037561e+06 3.376
12 irregular 2 52 152 69 2.500000e+00 0.268 slower 0 3.037562e+06 3.037565e+06 3.497
12 irregular 2 53 153 50 2.500000e+00 0.330 slower 1 3.037566e+06 3.037570e+06 3.484
12 irregular 2 54 154 50 1 0.458 faster 0 3.037571e+06 3.037573e+06 2.122
12 irregular 2 55 155 71 1.500000e+00 0.310 faster 1 3.037574e+06 3.037576e+06 2.220
12 irregular 2 56 156 70 1.500000e+00 0.191 faster 1 3.037577e+06 3.037580e+06 2.735
12 irregular 2 57 157 50 3 0.535 slower 1 3.037581e+06 3.037585e+06 3.993
12 irregular 2 58 158 69 3 0.392 slower 0 3.037586e+06 3.037590e+06 4.131
12 irregular 2 59 159 50 2.500000e+00 0.498 slower 1 3.037592e+06 3.037595e+06 3.317
12 irregular 2 60 160 50 3 0.283 slower 1 3.037596e+06 3.037600e+06 3.830
12 irregular 2 61 161 69 1.500000e+00 0.522 faster 1 3.037601e+06 3.037604e+06 2.361
12 irregular 2 62 162 69 2 0.157 faster 1 3.037605e+06 3.037607e+06 2.792
12 irregular 2 63 163 68 1.500000e+00 0.461 faster 1 3.037609e+06 3.037611e+06 2.191
12 irregular 2 64 164 68 1 0.569 faster 1 3.037612e+06 3.037614e+06 1.745
12 irregular 2 65 165 53 2.500000e+00 0.402 faster 0 3.037615e+06 3.037618e+06 3.140
12 irregular 2 66 166 52 1 0.161 faster 0 3.037619e+06 3.037621e+06 1.965
12 irregular 2 67 167 69 3 0.116 slower 0 3.037622e+06 3.037625e+06 3.933
12 irregular 2 68 168 70 1.500000e+00 0.381 faster 1 3.037627e+06 3.037629e+06 2.833
12 irregular 2 69 169 70 2.500000e+00 0.559 faster 1 3.037631e+06 3.037634e+06 3.386
12 irregular 2 70 170 69 1 0.476 faster 1 3.037635e+06 3.037638e+06 2.708
12 irregular 2 71 171 51 3 0.550 slower 1 3.037639e+06 3.037643e+06 3.763
12 irregular 2 72 172 52 2.500000e+00 0.118 faster 0 3.037644e+06 3.037648e+06 4.139
12 irregular 2 73 173 69 2 0.273 faster 1 3.037649e+06 3.037652e+06 2.954
12 irregular 2 74 174 51 1.500000e+00 0.526 slower 1 3.037653e+06 3.037655e+06 2.291
12 irregular 2 75 175 52 2 0.118 faster 0 3.037656e+06 3.037659e+06 2.995
12 irregular 2 76 176 51 2 0.371 faster 0 3.037660e+06 3.037663e+06 3.228
12 irregular 2 77 177 50 2.500000e+00 0.379 slower 1 3.037664e+06 3.037668e+06 3.345
12 irregular 2 78 178 50 1 0.530 faster 0 3.037669e+06 3.037671e+06 1.750
12 irregular 2 79 179 49 1.500000e+00 0.307 faster 0 3.037672e+06 3.037674e+06 2.497
12 irregular 2 80 180 72 1 0.247 faster 1 3.037675e+06 3.037677e+06 1.775
12 irregular 2 81 181 49 1 0.393 faster 0 3.037678e+06 3.037680e+06 1.593
12 irregular 2 82 182 48 1.500000e+00 0.119 faster 0 3.037681e+06 3.037683e+06 2.246
12 irregular 2 83 183 47 1.500000e+00 0.236 faster 0 3.037684e+06 3.037686e+06 2.053
12 irregular 2 84 184 74 2 0.505 faster 1 3.037687e+06 3.037690e+06 3.122
12 irregular 2 85 185 74 2 0.425 faster 1 3.037691e+06 3.037694e+06 2.712
12 irregular 2 86 186 47 2 0.448 slower 1 3.037695e+06 3.037698e+06 3.147
12 irregular 2 87 187 47 3 0.292 slower 1 3.037699e+06 3.037703e+06 3.695
12 irregular 2 88 188 72 2.500000e+00 0.497 faster 1 3.037704e+06 3.037707e+06 3.468
12 irregular 2 89 189 72 3 0.483 faster 1 3.037708e+06 3.037713e+06 4.295
12 irregular 2 90 190 49 2 0.543 faster 0 3.037714e+06 3.037717e+06 2.972
12 irregular 2 91 191 72 1.500000e+00 0.177 faster 1 3.037718e+06 3.037720e+06 2.354
12 irregular 2 92 192 48 2 0.163 slower 1 3.037721e+06 3.037724e+06 2.882
12 irregular 2 93 193 49 1 0.152 faster 0 3.037725e+06 3.037727e+06 1.980
12 irregular 2 94 194 48 1 0.263 slower 1 3.037728e+06 3.037730e+06 2.417
12 irregular 2 95 195 72 2.500000e+00 0.375 faster 1 3.037731e+06 3.037734e+06 3.226
12 irregular 2 96 196 49 1 0.516 slower 1 3.037736e+06 3.037738e+06 1.896
12 irregular 2 97 197 49 2 0.531 slower 1 3.037739e+06 3.037742e+06 2.678
12 irregular 2 98 198 70 3 0.524 faster 1 3.037743e+06 3.037747e+06 3.970
12 irregular 2 99 199 50 2.500000e+00 0.329 slower 1 3.037748e+06 3.037751e+06 3.381
12 irregular 2 100 200 69 1 0.317 faster 1 3.037752e+06 3.037754e+06 1.878
12 regular 3 1 201 69 2 0.159 faster 1 3.037917e+06 3.037920e+06 2.696
12 regular 3 2 202 52 2 0.318 slower 1 3.037921e+06 3.037924e+06 2.787
12 regular 3 3 203 52 2 0.559 faster 0 3.037925e+06 3.037928e+06 2.638
12 regular 3 4 204 51 2 0.464 faster 0 3.037929e+06 3.037931e+06 2.662
12 regular 3 5 205 50 2 0.345 faster 0 3.037932e+06 3.037935e+06 3.001
12 regular 3 6 206 49 2 0.561 faster 0 3.037937e+06 3.037939e+06 2.817
12 regular 3 7 207 72 2 0.510 faster 1 3.037941e+06 3.037943e+06 2.676
12 regular 3 8 208 49 2 0.584 faster 0 3.037945e+06 3.037947e+06 2.588
12 regular 3 9 209 72 2 0.494 faster 1 3.037948e+06 3.037951e+06 2.679
12 regular 3 10 210 48 2 0.441 faster 0 3.037952e+06 3.037955e+06 2.629
12 regular 3 11 211 47 2 0.573 slower 1 3.037956e+06 3.037959e+06 2.844
12 regular 3 12 212 72 2 0.272 faster 1 3.037960e+06 3.037962e+06 2.527
12 regular 3 13 213 72 2 0.104 faster 1 3.037963e+06 3.037966e+06 2.524
12 regular 3 14 214 49 2 0.272 faster 0 3.037967e+06 3.037970e+06 2.941
12 regular 3 15 215 72 2 0.112 faster 1 3.037970e+06 3.037973e+06 2.841
12 regular 3 16 216 72 2 0.204 faster 1 3.037974e+06 3.037977e+06 2.623
12 regular 3 17 217 71 2 0.571 faster 1 3.037978e+06 3.037980e+06 2.597
12 regular 3 18 218 49 2 0.137 slower 1 3.037981e+06 3.037985e+06 3.282
12 regular 3 19 219 50 2 0.224 faster 0 3.037985e+06 3.037988e+06 2.747
12 regular 3 20 220 49 2 0.311 slower 1 3.037989e+06 3.037992e+06 2.948
12 regular 3 21 221 49 2 0.487 faster 0 3.037993e+06 3.037996e+06 3.064
12 regular 3 22 222 48 2 0.374 slower 1 3.037997e+06 3.038000e+06 2.805
12 regular 3 23 223 71 2 0.569 faster 1 3.038001e+06 3.038004e+06 2.777
12 regular 3 24 224 49 2 0.226 slower 1 3.038005e+06 3.038008e+06 2.883
12 regular 3 25 225 50 2 0.496 faster 0 3.038009e+06 3.038012e+06 2.704
12 regular 3 26 226 71 2 0.275 faster 1 3.038012e+06 3.038015e+06 2.742
12 regular 3 27 227 49 2 0.398 faster 0 3.038016e+06 3.038019e+06 2.665
12 regular 3 28 228 72 2 0.537 faster 1 3.038020e+06 3.038023e+06 3.181
12 regular 3 29 229 71 2 0.119 faster 1 3.038024e+06 3.038027e+06 2.816
12 regular 3 30 230 71 2 0.386 faster 1 3.038028e+06 3.038031e+06 2.867
12 regular 3 31 231 50 2 0.388 slower 1 3.038032e+06 3.038035e+06 2.727
12 regular 3 32 232 70 2 0.189 faster 1 3.038036e+06 3.038039e+06 2.915
12 regular 3 33 233 51 2 0.121 slower 1 3.038040e+06 3.038042e+06 2.823
12 regular 3 34 234 69 2 0.480 faster 1 3.038043e+06 3.038046e+06 2.931
12 regular 3 35 235 68 2 0.557 faster 1 3.038048e+06 3.038051e+06 3.393
12 regular 3 36 236 52 2 0.164 faster 0 3.038052e+06 3.038055e+06 3.015
12 regular 3 37 237 69 2 0.595 faster 1 3.038056e+06 3.038059e+06 2.945
12 regular 3 38 238 68 2 0.484 faster 1 3.038060e+06 3.038063e+06 2.698
12 regular 3 39 239 68 2 0.350 slower 0 3.038064e+06 3.038067e+06 2.745
12 regular 3 40 240 51 2 0.122 slower 1 3.038067e+06 3.038070e+06 2.944
12 regular 3 41 241 68 2 0.296 faster 1 3.038071e+06 3.038074e+06 2.697
12 regular 3 42 242 52 2 0.104 slower 1 3.038075e+06 3.038077e+06 2.775
12 regular 3 43 243 53 2 0.366 faster 0 3.038078e+06 3.038081e+06 2.806
12 regular 3 44 244 68 2 0.370 faster 1 3.038082e+06 3.038085e+06 2.652
12 regular 3 45 245 68 2 0.562 faster 1 3.038086e+06 3.038089e+06 2.761
12 regular 3 46 246 67 2 0.405 slower 0 3.038090e+06 3.038094e+06 3.673
12 regular 3 47 247 52 2 0.422 slower 1 3.038095e+06 3.038097e+06 2.858
12 regular 3 48 248 68 2 0.394 slower 0 3.038098e+06 3.038102e+06 3.334
12 regular 3 49 249 69 2 0.348 slower 0 3.038103e+06 3.038106e+06 2.875
12 regular 3 50 250 70 2 0.584 slower 0 3.038107e+06 3.038110e+06 2.889
12 regular 3 51 251 71 2 0.155 faster 1 3.038111e+06 3.038113e+06 2.701
12 regular 3 52 252 70 2 0.147 slower 0 3.038114e+06 3.038117e+06 3.248
12 regular 3 53 253 49 2 0.148 slower 1 3.038118e+06 3.038121e+06 2.618
12 regular 3 54 254 71 2 0.587 faster 1 3.038122e+06 3.038125e+06 2.749
12 regular 3 55 255 50 2 0.101 slower 1 3.038125e+06 3.038128e+06 2.601
12 regular 3 56 256 50 2 0.275 slower 1 3.038129e+06 3.038132e+06 2.807
12 regular 3 57 257 51 2 0.128 slower 1 3.038133e+06 3.038136e+06 2.883
12 regular 3 58 258 69 2 0.324 faster 1 3.038137e+06 3.038140e+06 2.855
12 regular 3 59 259 52 2 0.420 slower 1 3.038144e+06 3.038146e+06 2.751
12 regular 3 60 260 52 2 0.387 faster 0 3.038147e+06 3.038150e+06 2.973
12 regular 3 61 261 69 2 0.385 faster 1 3.038151e+06 3.038155e+06 3.999
12 regular 3 62 262 68 2 0.158 faster 1 3.038156e+06 3.038159e+06 2.843
12 regular 3 63 263 52 2 0.300 slower 1 3.038160e+06 3.038163e+06 2.700
12 regular 3 64 264 67 2 0.174 slower 0 3.038164e+06 3.038166e+06 2.780
12 regular 3 65 265 52 2 0.153 slower 1 3.038167e+06 3.038170e+06 2.786
12 regular 3 66 266 52 2 0.347 slower 1 3.038171e+06 3.038174e+06 2.770
12 regular 3 67 267 67 2 0.118 faster 1 3.038174e+06 3.038177e+06 2.946
12 regular 3 68 268 67 2 0.530 faster 1 3.038182e+06 3.038185e+06 3.193
12 regular 3 69 269 54 2 0.369 slower 1 3.038186e+06 3.038189e+06 2.783
12 regular 3 70 270 54 2 0.260 slower 1 3.038189e+06 3.038193e+06 3.141
12 regular 3 71 271 65 2 0.249 faster 1 3.038194e+06 3.038196e+06 2.782
12 regular 3 72 272 65 2 0.332 faster 1 3.038198e+06 3.038201e+06 2.986
12 regular 3 73 273 56 2 0.287 faster 0 3.038202e+06 3.038204e+06 2.723
12 regular 3 74 274 65 2 0.407 slower 0 3.038206e+06 3.038209e+06 2.836
12 regular 3 75 275 66 2 0.460 faster 1 3.038210e+06 3.038213e+06 2.943
12 regular 3 76 276 54 2 0.162 slower 1 3.038213e+06 3.038216e+06 2.727
12 regular 3 77 277 55 2 0.105 faster 0 3.038217e+06 3.038220e+06 2.693
12 regular 3 78 278 54 2 0.454 faster 0 3.038221e+06 3.038224e+06 2.850
12 regular 3 79 279 67 2 0.111 slower 0 3.038226e+06 3.038228e+06 2.713
12 regular 3 80 280 68 2 0.155 faster 1 3.038230e+06 3.038233e+06 2.890
12 regular 3 81 281 68 2 0.295 faster 1 3.038234e+06 3.038237e+06 2.775
12 regular 3 82 282 67 2 0.523 faster 1 3.038238e+06 3.038241e+06 2.799
12 regular 3 83 283 67 2 0.428 slower 0 3.038244e+06 3.038247e+06 2.930
12 regular 3 84 284 52 2 0.576 faster 0 3.038248e+06 3.038252e+06 3.070
12 regular 3 85 285 69 2 0.129 faster 1 3.038252e+06 3.038255e+06 2.707
12 regular 3 86 286 68 2 0.457 faster 1 3.038256e+06 3.038259e+06 2.700
12 regular 3 87 287 68 2 0.116 faster 1 3.038260e+06 3.038262e+06 2.801
12 regular 3 88 288 53 2 0.176 faster 0 3.038263e+06 3.038266e+06 2.856
12 regular 3 89 289 52 2 0.456 slower 1 3.038268e+06 3.038271e+06 2.689
12 regular 3 90 290 68 2 0.583 faster 1 3.038272e+06 3.038275e+06 2.792
12 regular 3 91 291 53 2 0.129 faster 0 3.038276e+06 3.038279e+06 2.818
12 regular 3 92 292 52 2 0.570 faster 0 3.038280e+06 3.038283e+06 2.939
12 regular 3 93 293 69 2 0.196 slower 0 3.038284e+06 3.038287e+06 2.762
12 regular 3 94 294 50 2 0.575 slower 1 3.038288e+06 3.038292e+06 4.047
12 regular 3 95 295 50 2 0.432 slower 1 3.038293e+06 3.038296e+06 3.032
12 regular 3 96 296 51 2 0.564 slower 1 3.038297e+06 3.038300e+06 2.855
12 regular 3 97 297 51 2 0.107 slower 1 3.038302e+06 3.038305e+06 2.963
12 regular 3 98 298 68 2 0.172 faster 1 3.038306e+06 3.038309e+06 2.702
12 regular 3 99 299 52 2 0.374 slower 1 3.038310e+06 3.038313e+06 2.832
12 regular 3 100 300 53 2 0.479 slower 1 3.038314e+06 3.038317e+06 3.563
12 irregular 4 1 301 53 2.500000e+00 0.462 slower 1 3.038428e+06 3.038432e+06 3.223
12 irregular 4 2 302 54 2.500000e+00 0.515 faster 0 3.038433e+06 3.038436e+06 3.322
12 irregular 4 3 303 53 2 0.524 faster 0 3.038437e+06 3.038440e+06 2.898
12 irregular 4 4 304 68 1.500000e+00 0.274 faster 1 3.038441e+06 3.038443e+06 2.250
12 irregular 4 5 305 68 1 0.369 faster 1 3.038444e+06 3.038446e+06 1.691
12 irregular 4 6 306 67 2.500000e+00 0.576 slower 0 3.038447e+06 3.038451e+06 3.344
12 irregular 4 7 307 52 2 0.421 slower 1 3.038452e+06 3.038455e+06 2.901
12 irregular 4 8 308 52 1.500000e+00 0.208 faster 0 3.038455e+06 3.038458e+06 2.230
12 irregular 4 9 309 69 1.500000e+00 0.464 faster 1 3.038459e+06 3.038461e+06 2.623
12 irregular 4 10 310 68 2 0.228 faster 1 3.038462e+06 3.038465e+06 2.938
12 irregular 4 11 311 68 2 0.189 faster 1 3.038466e+06 3.038469e+06 2.758
12 irregular 4 12 312 67 3 0.323 slower 0 3.038470e+06 3.038474e+06 3.747
12 irregular 4 13 313 68 2.500000e+00 0.417 faster 1 3.038475e+06 3.038478e+06 3.209
12 irregular 4 14 314 52 2.500000e+00 0.382 slower 1 3.038479e+06 3.038482e+06 3.218
12 irregular 4 15 315 67 1.500000e+00 0.112 faster 1 3.038483e+06 3.038486e+06 2.822
12 irregular 4 16 316 53 2.500000e+00 0.491 slower 1 3.038487e+06 3.038490e+06 3.310
12 irregular 4 17 317 66 3 0.152 slower 0 3.038491e+06 3.038495e+06 3.837
12 irregular 4 18 318 67 1 0.230 faster 1 3.038496e+06 3.038498e+06 1.816
12 irregular 4 19 319 53 2.500000e+00 0.316 slower 1 3.038499e+06 3.038502e+06 3.351
12 irregular 4 20 320 66 2 0.437 faster 1 3.038503e+06 3.038506e+06 2.731
12 irregular 4 21 321 54 2 0.406 slower 1 3.038507e+06 3.038510e+06 2.840
12 irregular 4 22 322 55 1.500000e+00 0.452 slower 1 3.038511e+06 3.038513e+06 2.289
12 irregular 4 23 323 65 2.500000e+00 0.144 slower 0 3.038514e+06 3.038517e+06 3.466
12 irregular 4 24 324 54 2 0.177 faster 0 3.038518e+06 3.038522e+06 3.475
12 irregular 4 25 325 67 1.500000e+00 0.327 slower 0 3.038523e+06 3.038525e+06 2.354
12 irregular 4 26 326 68 3 0.136 slower 0 3.038526e+06 3.038530e+06 3.723
12 irregular 4 27 327 69 2.500000e+00 0.323 slower 0 3.038531e+06 3.038535e+06 4.109
12 irregular 4 28 328 70 2.500000e+00 0.522 faster 1 3.038536e+06 3.038540e+06 3.737
12 irregular 4 29 329 69 1.500000e+00 0.375 faster 1 3.038541e+06 3.038543e+06 2.374
12 irregular 4 30 330 69 1 0.433 faster 1 3.038544e+06 3.038546e+06 2.139
12 irregular 4 31 331 52 1.500000e+00 0.557 faster 0 3.038547e+06 3.038550e+06 2.339
12 irregular 4 32 332 69 2 0.460 faster 1 3.038551e+06 3.038554e+06 3.216
12 irregular 4 33 333 69 2 0.477 faster 1 3.038555e+06 3.038558e+06 2.993
12 irregular 4 34 334 68 1.500000e+00 0.520 faster 1 3.038559e+06 3.038562e+06 2.627
12 irregular 4 35 335 68 1 0.337 faster 1 3.038563e+06 3.038565e+06 1.809
12 irregular 4 36 336 53 3 0.183 slower 1 3.038566e+06 3.038569e+06 3.702
12 irregular 4 37 337 53 3 0.324 faster 0 3.038570e+06 3.038574e+06 3.992
12 irregular 4 38 338 52 1.500000e+00 0.592 slower 1 3.038576e+06 3.038578e+06 2.296
12 irregular 4 39 339 53 1 0.382 faster 0 3.038579e+06 3.038581e+06 2.024
12 irregular 4 40 340 52 1.500000e+00 0.215 slower 1 3.038582e+06 3.038585e+06 2.608
12 irregular 4 41 341 68 2 0.577 faster 1 3.038586e+06 3.038589e+06 2.785
12 irregular 4 42 342 67 1.500000e+00 0.202 faster 1 3.038590e+06 3.038592e+06 2.229
12 irregular 4 43 343 53 3 0.161 slower 1 3.038593e+06 3.038597e+06 3.796
12 irregular 4 44 344 54 2.500000e+00 0.152 faster 0 3.038597e+06 3.038601e+06 3.410
12 irregular 4 45 345 67 2 0.481 faster 1 3.038602e+06 3.038605e+06 2.838
12 irregular 4 46 346 67 2.500000e+00 0.391 faster 1 3.038606e+06 3.038609e+06 3.567
12 irregular 4 47 347 66 1 0.592 faster 1 3.038611e+06 3.038613e+06 2.001
12 irregular 4 48 348 54 3 0.167 slower 1 3.038613e+06 3.038617e+06 3.715
12 irregular 4 49 349 55 1 0.596 faster 0 3.038618e+06 3.038620e+06 1.868
12 irregular 4 50 350 66 2 0.538 slower 0 3.038622e+06 3.038625e+06 3.300
12 irregular 4 51 351 67 2 0.307 faster 1 3.038626e+06 3.038629e+06 2.929
12 irregular 4 52 352 53 3 0.542 slower 1 3.038630e+06 3.038634e+06 3.925
12 irregular 4 53 353 66 2.500000e+00 0.343 faster 1 3.038635e+06 3.038638e+06 3.347
12 irregular 4 54 354 54 1 0.143 slower 1 3.038639e+06 3.038641e+06 2.240
12 irregular 4 55 355 55 1.500000e+00 0.282 slower 1 3.038642e+06 3.038645e+06 2.578
12 irregular 4 56 356 65 3 0.122 faster 1 3.038646e+06 3.038650e+06 4.473
12 irregular 4 57 357 64 2 0.224 faster 1 3.038651e+06 3.038654e+06 2.759
12 irregular 4 58 358 56 2.500000e+00 0.123 faster 0 3.038655e+06 3.038658e+06 3.803
12 irregular 4 59 359 55 2.500000e+00 0.230 faster 0 3.038659e+06 3.038663e+06 3.850
12 irregular 4 60 360 54 1.500000e+00 0.572 faster 0 3.038664e+06 3.038667e+06 2.363
12 irregular 4 61 361 53 2 0.432 faster 0 3.038668e+06 3.038671e+06 2.908
12 irregular 4 62 362 52 1.500000e+00 0.416 faster 0 3.038672e+06 3.038674e+06 2.507
12 irregular 4 63 363 69 3 0.483 faster 1 3.038675e+06 3.038679e+06 3.787
12 irregular 4 64 364 52 2.500000e+00 0.451 slower 1 3.038680e+06 3.038683e+06 3.076
12 irregular 4 65 365 52 1 0.222 faster 0 3.038684e+06 3.038686e+06 1.861
12 irregular 4 66 366 69 2.500000e+00 0.470 faster 1 3.038687e+06 3.038690e+06 3.101
12 irregular 4 67 367 52 3 0.141 slower 1 3.038691e+06 3.038695e+06 3.824
12 irregular 4 68 368 68 1 0.320 faster 1 3.038696e+06 3.038698e+06 1.779
12 irregular 4 69 369 53 2 0.558 slower 1 3.038699e+06 3.038702e+06 2.743
12 irregular 4 70 370 67 1.500000e+00 0.170 faster 1 3.038703e+06 3.038705e+06 2.223
12 irregular 4 71 371 54 3 0.407 slower 1 3.038706e+06 3.038710e+06 3.684
12 irregular 4 72 372 54 2 0.591 faster 0 3.038711e+06 3.038714e+06 2.932
12 irregular 4 73 373 53 2 0.227 faster 0 3.038715e+06 3.038717e+06 2.793
12 irregular 4 74 374 68 3 0.431 faster 1 3.038719e+06 3.038722e+06 3.661
12 irregular 4 75 375 53 2.500000e+00 0.417 faster 0 3.038723e+06 3.038722e+06 -1.099
12 irregular 4 76 376 52 1 0.243 faster 0 3.038727e+06 3.038729e+06 1.994
12 irregular 4 77 377 69 1 0.412 faster 1 3.038730e+06 3.038732e+06 2.042
12 irregular 4 78 378 51 1 0.191 slower 1 3.038733e+06 3.038734e+06 1.761
12 irregular 4 79 379 68 1 0.264 faster 1 3.038735e+06 3.038737e+06 1.836
12 irregular 4 80 380 68 3 0.491 slower 0 3.038738e+06 3.038742e+06 3.833
12 irregular 4 81 381 51 1 0.105 faster 0 3.038743e+06 3.038745e+06 1.717
12 irregular 4 82 382 70 2.500000e+00 0.125 slower 0 3.038746e+06 3.038749e+06 3.175
12 irregular 4 83 383 49 1.500000e+00 0.506 slower 1 3.038750e+06 3.038753e+06 2.261
12 irregular 4 84 384 70 1 0.348 faster 1 3.038754e+06 3.038755e+06 1.758
12 irregular 4 85 385 70 1.500000e+00 0.548 faster 1 3.038757e+06 3.038759e+06 2.328
12 irregular 4 86 386 69 3 0.504 faster 1 3.038760e+06 3.038764e+06 4.084
12 irregular 4 87 387 69 2.500000e+00 0.375 faster 1 3.038765e+06 3.038769e+06 3.244
12 irregular 4 88 388 52 1 0.174 faster 0 3.038769e+06 3.038771e+06 1.775
12 irregular 4 89 389 51 3 0.402 slower 1 3.038772e+06 3.038776e+06 3.698
12 irregular 4 90 390 51 3 0.411 faster 0 3.038777e+06 3.038781e+06 3.996
12 irregular 4 91 391 50 2 0.410 slower 1 3.038782e+06 3.038785e+06 2.968
12 irregular 4 92 392 51 1 0.300 faster 0 3.038787e+06 3.038789e+06 1.939
12 irregular 4 93 393 70 3 0.231 faster 1 3.038790e+06 3.038794e+06 3.915
12 irregular 4 94 394 70 1.500000e+00 0.263 faster 1 3.038794e+06 3.038797e+06 2.348
12 irregular 4 95 395 69 3 0.225 slower 0 3.038798e+06 3.038802e+06 3.965
12 irregular 4 96 396 50 3 0.144 faster 0 3.038802e+06 3.038806e+06 3.776
12 irregular 4 97 397 49 1.500000e+00 0.596 slower 1 3.038808e+06 3.038810e+06 2.259
12 irregular 4 98 398 49 2 0.116 slower 1 3.038811e+06 3.038813e+06 2.826
12 irregular 4 99 399 70 1 0.278 faster 1 3.038814e+06 3.038816e+06 1.779
12 irregular 4 100 400 50 1 0.118 faster 0 3.038817e+06 3.038819e+06 1.883
12 regular 5 1 401 71 2.500000e+00 0.518 faster 1 3.038869e+06 3.038872e+06 3.526
12 regular 5 2 402 70 2.500000e+00 0.172 slower 0 3.038874e+06 3.038877e+06 3.218
12 regular 5 3 403 49 2.500000e+00 0.479 slower 1 3.038878e+06 3.038881e+06 3.242
12 regular 5 4 404 49 2.500000e+00 0.284 slower 1 3.038882e+06 3.038885e+06 3.152
12 regular 5 5 405 70 2.500000e+00 0.420 faster 1 3.038886e+06 3.038889e+06 3.173
12 regular 5 6 406 70 2.500000e+00 0.179 faster 1 3.038890e+06 3.038893e+06 3.117
12 regular 5 7 407 51 2.500000e+00 0.385 faster 0 3.038894e+06 3.038898e+06 3.220
12 regular 5 8 408 70 2.500000e+00 0.473 faster 1 3.038899e+06 3.038902e+06 3.126
12 regular 5 9 409 70 2.500000e+00 0.548 faster 1 3.038903e+06 3.038906e+06 3.233
12 regular 5 10 410 51 2.500000e+00 0.267 faster 0 3.038907e+06 3.038911e+06 3.370
12 regular 5 11 411 70 2.500000e+00 0.177 faster 1 3.038911e+06 3.038915e+06 3.213
12 regular 5 12 412 50 2.500000e+00 0.578 slower 1 3.038916e+06 3.038919e+06 3.388
12 regular 5 13 413 51 2.500000e+00 0.556 faster 0 3.038920e+06 3.038924e+06 3.226
12 regular 5 14 414 70 2.500000e+00 0.123 faster 1 3.038924e+06 3.038928e+06 3.175
12 regular 5 15 415 70 2.500000e+00 0.197 faster 1 3.038928e+06 3.038932e+06 3.521
12 regular 5 16 416 51 2.500000e+00 0.470 faster 0 3.038933e+06 3.038936e+06 3.113
12 regular 5 17 417 70 2.500000e+00 0.128 faster 1 3.038937e+06 3.038940e+06 3.173
12 regular 5 18 418 50 2.500000e+00 0.311 slower 1 3.038941e+06 3.038944e+06 3.426
12 regular 5 19 419 69 2.500000e+00 0.130 faster 1 3.038945e+06 3.038948e+06 3.275
12 regular 5 20 420 51 2.500000e+00 0.331 faster 0 3.038949e+06 3.038953e+06 3.857
12 regular 5 21 421 50 2.500000e+00 0.243 slower 1 3.038954e+06 3.038957e+06 3.290
12 regular 5 22 422 69 2.500000e+00 0.544 faster 1 3.038959e+06 3.038962e+06 3.223
12 regular 5 23 423 51 2.500000e+00 0.178 faster 0 3.038963e+06 3.038966e+06 3.280
12 regular 5 24 424 50 2.500000e+00 0.237 slower 1 3.038967e+06 3.038971e+06 3.380
12 regular 5 25 425 51 2.500000e+00 0.427 faster 0 3.038972e+06 3.038975e+06 3.359
12 regular 5 26 426 50 2.500000e+00 0.273 faster 0 3.038976e+06 3.038979e+06 3.473
12 regular 5 27 427 71 2.500000e+00 0.237 faster 1 3.038980e+06 3.038984e+06 3.377
12 regular 5 28 428 71 2.500000e+00 0.311 faster 1 3.038985e+06 3.038988e+06 3.273
12 regular 5 29 429 50 2.500000e+00 0.347 slower 1 3.038989e+06 3.038992e+06 3.439
12 regular 5 30 430 50 2.500000e+00 0.545 faster 0 3.038994e+06 3.038997e+06 3.309
12 regular 5 31 431 71 2.500000e+00 0.497 slower 0 3.038998e+06 3.039002e+06 3.498
12 regular 5 32 432 72 2.500000e+00 0.199 faster 1 3.039002e+06 3.039006e+06 3.355
12 regular 5 33 433 49 2.500000e+00 0.252 slower 1 3.039007e+06 3.039010e+06 3.408
12 regular 5 34 434 71 2.500000e+00 0.271 slower 0 3.039011e+06 3.039015e+06 4.018
12 regular 5 35 435 48 2.500000e+00 0.505 slower 1 3.039016e+06 3.039020e+06 3.508
12 regular 5 36 436 71 2.500000e+00 0.211 faster 1 3.039020e+06 3.039024e+06 3.945
12 regular 5 37 437 49 2.500000e+00 0.559 slower 1 3.039026e+06 3.039029e+06 3.338
12 regular 5 38 438 70 2.500000e+00 0.307 faster 1 3.039030e+06 3.039033e+06 3.424
12 regular 5 39 439 70 2.500000e+00 0.189 faster 1 3.039034e+06 3.039037e+06 3.384
12 regular 5 40 440 69 2.500000e+00 0.189 faster 1 3.039038e+06 3.039042e+06 3.249
12 regular 5 41 441 51 2.500000e+00 0.200 slower 1 3.039042e+06 3.039046e+06 3.378
12 regular 5 42 442 52 2.500000e+00 0.445 faster 0 3.039047e+06 3.039050e+06 3.306
12 regular 5 43 443 69 2.500000e+00 0.474 faster 1 3.039052e+06 3.039056e+06 3.500
12 regular 5 44 444 69 2.500000e+00 0.419 faster 1 3.039057e+06 3.039060e+06 3.319
12 regular 5 45 445 52 2.500000e+00 0.208 slower 1 3.039061e+06 3.039065e+06 3.263
12 regular 5 46 446 52 2.500000e+00 0.251 faster 0 3.039066e+06 3.039069e+06 3.271
12 regular 5 47 447 51 2.500000e+00 0.206 slower 1 3.039070e+06 3.039073e+06 3.279
12 regular 5 48 448 68 2.500000e+00 0.527 faster 1 3.039074e+06 3.039078e+06 3.303
12 regular 5 49 449 68 2.500000e+00 0.254 faster 1 3.039078e+06 3.039082e+06 3.293
12 regular 5 50 450 53 2.500000e+00 0.323 faster 0 3.039083e+06 3.039086e+06 3.250
12 regular 5 51 451 52 2.500000e+00 0.463 faster 0 3.039087e+06 3.039091e+06 3.537
12 regular 5 52 452 51 2.500000e+00 0.350 slower 1 3.039092e+06 3.039095e+06 3.272
12 regular 5 53 453 51 2.500000e+00 0.217 slower 1 3.039096e+06 3.039099e+06 3.501
12 regular 5 54 454 68 2.500000e+00 0.347 faster 1 3.039100e+06 3.039103e+06 3.269
12 regular 5 55 455 52 2.500000e+00 0.207 faster 0 3.039104e+06 3.039108e+06 3.417
12 regular 5 56 456 51 2.500000e+00 0.103 slower 1 3.039108e+06 3.039112e+06 3.351
12 regular 5 57 457 52 2.500000e+00 0.197 slower 1 3.039113e+06 3.039116e+06 3.336
12 regular 5 58 458 68 2.500000e+00 0.566 faster 1 3.039117e+06 3.039121e+06 3.456
12 regular 5 59 459 67 2.500000e+00 0.583 faster 1 3.039122e+06 3.039125e+06 3.224
12 regular 5 60 460 67 2.500000e+00 0.567 faster 1 3.039126e+06 3.039130e+06 3.416
12 regular 5 61 461 54 2.500000e+00 0.295 faster 0 3.039131e+06 3.039134e+06 3.305
12 regular 5 62 462 67 2.500000e+00 0.167 slower 0 3.039136e+06 3.039140e+06 3.352
12 regular 5 63 463 52 2.500000e+00 0.439 slower 1 3.039141e+06 3.039144e+06 3.418
12 regular 5 64 464 52 2.500000e+00 0.393 slower 1 3.039146e+06 3.039149e+06 3.417
12 regular 5 65 465 53 2.500000e+00 0.126 slower 1 3.039150e+06 3.039153e+06 3.215
12 regular 5 66 466 53 2.500000e+00 0.467 faster 0 3.039154e+06 3.039157e+06 3.128
12 regular 5 67 467 68 2.500000e+00 0.487 faster 1 3.039158e+06 3.039161e+06 3.211
12 regular 5 68 468 53 2.500000e+00 0.305 slower 1 3.039162e+06 3.039166e+06 3.477
12 regular 5 69 469 67 2.500000e+00 0.412 faster 1 3.039167e+06 3.039170e+06 3.415
12 regular 5 70 470 66 2.500000e+00 0.473 slower 0 3.039171e+06 3.039175e+06 3.469
12 regular 5 71 471 67 2.500000e+00 0.348 faster 1 3.039176e+06 3.039180e+06 4.094
12 regular 5 72 472 53 2.500000e+00 0.210 slower 1 3.039181e+06 3.039184e+06 3.269
12 regular 5 73 473 66 2.500000e+00 0.268 slower 0 3.039185e+06 3.039188e+06 3.233
12 regular 5 74 474 53 2.500000e+00 0.158 faster 0 3.039189e+06 3.039193e+06 3.455
12 regular 5 75 475 68 2.500000e+00 0.231 faster 1 3.039193e+06 3.039197e+06 3.312
12 regular 5 76 476 52 2.500000e+00 0.366 faster 0 3.039198e+06 3.039201e+06 3.218
12 regular 5 77 477 69 2.500000e+00 0.359 faster 1 3.039202e+06 3.039205e+06 3.346
12 regular 5 78 478 52 2.500000e+00 0.136 slower 1 3.039206e+06 3.039209e+06 3.365
12 regular 5 79 479 52 2.500000e+00 0.198 faster 0 3.039210e+06 3.039214e+06 3.393
12 regular 5 80 480 51 2.500000e+00 0.484 faster 0 3.039215e+06 3.039218e+06 3.307
12 regular 5 81 481 70 2.500000e+00 0.258 faster 1 3.039219e+06 3.039222e+06 3.178
12 regular 5 82 482 69 2.500000e+00 0.329 slower 0 3.039223e+06 3.039226e+06 3.222
12 regular 5 83 483 70 2.500000e+00 0.421 faster 1 3.039227e+06 3.039231e+06 3.380
12 regular 5 84 484 70 2.500000e+00 0.525 faster 1 3.039232e+06 3.039235e+06 3.291
12 regular 5 85 485 51 2.500000e+00 0.404 slower 1 3.039237e+06 3.039241e+06 3.936
12 regular 5 86 486 51 2.500000e+00 0.333 faster 0 3.039242e+06 3.039245e+06 3.384
12 regular 5 87 487 50 2.500000e+00 0.256 slower 1 3.039246e+06 3.039249e+06 3.302
12 regular 5 88 488 69 2.500000e+00 0.300 faster 1 3.039250e+06 3.039253e+06 3.173
12 regular 5 89 489 51 2.500000e+00 0.144 faster 0 3.039254e+06 3.039258e+06 3.503
12 regular 5 90 490 50 2.500000e+00 0.111 slower 1 3.039258e+06 3.039261e+06 3.173
12 regular 5 91 491 51 2.500000e+00 0.166 faster 0 3.039262e+06 3.039266e+06 3.378
12 regular 5 92 492 70 2.500000e+00 0.130 faster 1 3.039266e+06 3.039270e+06 3.278
12 regular 5 93 493 70 2.500000e+00 0.571 faster 1 3.039271e+06 3.039274e+06 3.255
12 regular 5 94 494 69 2.500000e+00 0.531 faster 1 3.039276e+06 3.039279e+06 3.375
12 regular 5 95 495 51 2.500000e+00 0.204 faster 0 3.039280e+06 3.039284e+06 3.943
12 regular 5 96 496 70 2.500000e+00 0.243 faster 1 3.039285e+06 3.039288e+06 3.372
12 regular 5 97 497 69 2.500000e+00 0.265 slower 0 3.039289e+06 3.039292e+06 3.424
12 regular 5 98 498 70 2.500000e+00 0.562 faster 1 3.039293e+06 3.039297e+06 3.240
12 regular 5 99 499 70 2.500000e+00 0.147 slower 0 3.039297e+06 3.039302e+06 4.012
12 regular 5 100 500 71 2.500000e+00 0.189 faster 1 3.039302e+06 3.039306e+06 3.173
12 irregular 6 1 501 51 3 0.143 slower 1 3.799427e+06 3.799430e+06 3.678
12 irregular 6 2 502 51 3 0.355 slower 1 3.799432e+06 3.799435e+06 3.737
12 irregular 6 3 503 67 1 0.464 faster 1 3.799437e+06 3.799439e+06 1.736
12 irregular 6 4 504 67 2.500000e+00 0.147 slower 0 3.799439e+06 3.799443e+06 3.251
12 irregular 6 5 505 51 1 0.580 faster 0 3.799444e+06 3.799446e+06 1.731
12 irregular 6 6 506 49 1 0.475 slower 1 3.799447e+06 3.799449e+06 1.774
12 irregular 6 7 507 51 3 0.504 slower 1 3.799450e+06 3.799454e+06 3.967
12 irregular 6 8 508 69 1 0.275 faster 1 3.799455e+06 3.799456e+06 1.677
12 irregular 6 9 509 67 2 0.323 slower 0 3.799457e+06 3.799460e+06 3.215
12 irregular 6 10 510 69 3 0.271 slower 0 3.799462e+06 3.799466e+06 3.828
12 irregular 6 11 511 71 1.500000e+00 0.426 faster 1 3.799467e+06 3.799469e+06 2.351
12 irregular 6 12 512 71 2 0.522 faster 1 3.799470e+06 3.799473e+06 3.069
12 irregular 6 13 513 51 1.500000e+00 0.377 slower 1 3.799474e+06 3.799477e+06 2.454
12 irregular 6 14 514 51 1 0.274 faster 0 3.799478e+06 3.799480e+06 1.832
12 irregular 6 15 515 70 2 0.251 slower 0 3.799481e+06 3.799483e+06 2.846
12 irregular 6 16 516 49 1.500000e+00 0.400 faster 0 3.799485e+06 3.799487e+06 2.309
12 irregular 6 17 517 72 2.500000e+00 0.339 faster 1 3.799488e+06 3.799492e+06 3.707
12 irregular 6 18 518 71 1 0.511 faster 1 3.799493e+06 3.799495e+06 1.889
12 irregular 6 19 519 49 2.500000e+00 0.581 slower 1 3.799498e+06 3.799501e+06 3.501
12 irregular 6 20 520 50 3 0.524 faster 0 3.799503e+06 3.799507e+06 4.165
12 irregular 6 21 521 71 1.500000e+00 0.168 faster 1 3.799508e+06 3.799510e+06 2.275
12 irregular 6 22 522 71 3 0.146 slower 0 3.799511e+06 3.799515e+06 3.817
12 irregular 6 23 523 48 2 0.434 slower 1 3.799516e+06 3.799519e+06 2.758
12 irregular 6 24 524 49 1 0.267 faster 0 3.799520e+06 3.799522e+06 1.725
12 irregular 6 25 525 48 1.500000e+00 0.217 slower 1 3.799523e+06 3.799525e+06 2.205
12 irregular 6 26 526 72 3 0.198 faster 1 3.799526e+06 3.799530e+06 4.040
12 irregular 6 27 527 49 2 0.575 faster 0 3.799531e+06 3.799534e+06 2.868
12 irregular 6 28 528 72 2.500000e+00 0.207 faster 1 3.799535e+06 3.799538e+06 3.375
12 irregular 6 29 529 48 2.500000e+00 0.106 slower 1 3.799539e+06 3.799542e+06 3.376
12 irregular 6 30 530 49 1 0.146 faster 0 3.799543e+06 3.799545e+06 1.812
12 irregular 6 31 531 48 2 0.584 faster 0 3.799547e+06 3.799549e+06 2.908
12 irregular 6 32 532 73 2 0.316 faster 1 3.799551e+06 3.799554e+06 2.901
12 irregular 6 33 533 47 2.500000e+00 0.391 slower 1 3.799555e+06 3.799558e+06 3.139
12 irregular 6 34 534 48 1.500000e+00 0.119 slower 1 3.799559e+06 3.799562e+06 2.511
12 irregular 6 35 535 72 1.500000e+00 0.596 faster 1 3.799563e+06 3.799565e+06 2.425
12 irregular 6 36 536 49 2.500000e+00 0.441 faster 0 3.799566e+06 3.799570e+06 3.321
12 irregular 6 37 537 72 2 0.161 faster 1 3.799571e+06 3.799573e+06 2.625
12 irregular 6 38 538 48 2.500000e+00 0.515 faster 0 3.799574e+06 3.799578e+06 3.231
12 irregular 6 39 539 73 1.500000e+00 0.300 slower 0 3.799579e+06 3.799581e+06 2.419
12 irregular 6 40 540 74 1 0.595 faster 1 3.799582e+06 3.799584e+06 1.855
12 irregular 6 41 541 47 3 0.566 slower 1 3.799585e+06 3.799589e+06 3.683
12 irregular 6 42 542 73 1 0.344 faster 1 3.799590e+06 3.799592e+06 1.816
12 irregular 6 43 543 48 1 0.585 slower 1 3.799593e+06 3.799595e+06 1.699
12 irregular 6 44 544 48 3 0.267 slower 1 3.799596e+06 3.799600e+06 3.775
12 irregular 6 45 545 49 1.500000e+00 0.241 faster 0 3.799601e+06 3.799603e+06 2.427
12 irregular 6 46 546 72 2 0.505 faster 1 3.799604e+06 3.799608e+06 3.366
12 irregular 6 47 547 72 3 0.219 slower 0 3.799608e+06 3.799612e+06 3.847
12 irregular 6 48 548 47 1.500000e+00 0.297 slower 1 3.799613e+06 3.799615e+06 2.132
12 irregular 6 49 549 48 2.500000e+00 0.139 slower 1 3.799616e+06 3.799620e+06 3.526
12 irregular 6 50 550 48 1.500000e+00 0.186 faster 0 3.799621e+06 3.799623e+06 2.239
12 irregular 6 51 551 73 1.500000e+00 0.118 faster 1 3.799624e+06 3.799626e+06 2.365
12 irregular 6 52 552 48 1 0.326 slower 1 3.799627e+06 3.799629e+06 1.731
12 irregular 6 53 553 72 1.500000e+00 0.336 faster 1 3.799630e+06 3.799632e+06 2.299
12 irregular 6 54 554 71 3 0.124 slower 0 3.799633e+06 3.799637e+06 3.716
12 irregular 6 55 555 72 2.500000e+00 0.161 faster 1 3.799638e+06 3.799641e+06 3.336
12 irregular 6 56 556 72 1.500000e+00 0.287 faster 1 3.799642e+06 3.799644e+06 2.198
12 irregular 6 57 557 49 1.500000e+00 0.584 slower 1 3.799645e+06 3.799648e+06 2.249
12 irregular 6 58 558 49 1.500000e+00 0.401 faster 0 3.799649e+06 3.799651e+06 2.423
12 irregular 6 59 559 72 3 0.484 faster 1 3.799652e+06 3.799656e+06 3.758
12 irregular 6 60 560 71 2.500000e+00 0.161 faster 1 3.799657e+06 3.799661e+06 3.707
12 irregular 6 61 561 49 3 0.131 slower 1 3.799661e+06 3.799665e+06 3.732
12 irregular 6 62 562 50 2 0.580 slower 1 3.799667e+06 3.799670e+06 2.745
12 irregular 6 63 563 70 1 0.381 faster 1 3.799671e+06 3.799673e+06 1.760
12 irregular 6 64 564 51 2 0.311 slower 1 3.799674e+06 3.799676e+06 2.660
12 irregular 6 65 565 51 2.500000e+00 0.146 faster 0 3.799677e+06 3.799680e+06 3.336
12 irregular 6 66 566 50 1 0.525 faster 0 3.799682e+06 3.799684e+06 1.956
12 irregular 6 67 567 49 1.500000e+00 0.239 faster 0 3.799685e+06 3.799687e+06 2.270
12 irregular 6 68 568 48 2.500000e+00 0.576 faster 0 3.799688e+06 3.799692e+06 3.762
12 irregular 6 69 569 73 2.500000e+00 0.117 faster 1 3.799693e+06 3.799696e+06 3.160
12 irregular 6 70 570 72 3 0.533 faster 1 3.799697e+06 3.799701e+06 3.897
12 irregular 6 71 571 72 2 0.517 faster 1 3.799703e+06 3.799706e+06 2.805
12 irregular 6 72 572 71 3 0.263 faster 1 3.799707e+06 3.799710e+06 3.920
12 irregular 6 73 573 49 3 0.209 slower 1 3.799711e+06 3.799715e+06 3.717
12 irregular 6 74 574 50 1 0.526 faster 0 3.799716e+06 3.799718e+06 1.968
12 irregular 6 75 575 71 1 0.318 faster 1 3.799719e+06 3.799721e+06 1.836
12 irregular 6 76 576 71 1.500000e+00 0.217 faster 1 3.799722e+06 3.799724e+06 2.296
12 irregular 6 77 577 50 2 0.389 faster 0 3.799725e+06 3.799728e+06 2.892
12 irregular 6 78 578 71 1.500000e+00 0.292 slower 0 3.799729e+06 3.799732e+06 2.504
12 irregular 6 79 579 72 3 0.600 faster 1 3.799733e+06 3.799737e+06 3.774
12 irregular 6 80 580 48 3 0.227 slower 1 3.799738e+06 3.799741e+06 3.752
12 irregular 6 81 581 49 2 0.439 faster 0 3.799742e+06 3.799745e+06 2.636
12 irregular 6 82 582 48 2 0.358 faster 0 3.799746e+06 3.799749e+06 2.986
12 irregular 6 83 583 47 3 0.573 slower 1 3.799750e+06 3.799754e+06 3.629
12 irregular 6 84 584 47 2 0.202 slower 1 3.799756e+06 3.799759e+06 2.771
12 irregular 6 85 585 72 2.500000e+00 0.450 faster 1 3.799760e+06 3.799764e+06 3.245
12 irregular 6 86 586 72 3 0.326 faster 1 3.799765e+06 3.799768e+06 3.685
12 irregular 6 87 587 71 2.500000e+00 0.368 faster 1 3.799769e+06 3.799773e+06 3.443
12 irregular 6 88 588 71 1 0.258 faster 1 3.799774e+06 3.799776e+06 1.836
12 irregular 6 89 589 70 1 0.204 faster 1 3.799776e+06 3.799778e+06 1.709
12 irregular 6 90 590 50 2.500000e+00 0.209 slower 1 3.799779e+06 3.799782e+06 3.291
12 irregular 6 91 591 51 1 0.471 faster 0 3.799783e+06 3.799785e+06 1.774
12 irregular 6 92 592 50 2.500000e+00 0.150 faster 0 3.799786e+06 3.799789e+06 3.423
12 irregular 6 93 593 71 2.500000e+00 0.262 faster 1 3.799790e+06 3.799794e+06 3.422
12 irregular 6 94 594 71 2.500000e+00 0.321 faster 1 3.799795e+06 3.799798e+06 3.223
12 irregular 6 95 595 70 1.500000e+00 0.271 faster 1 3.799799e+06 3.799801e+06 2.261
12 irregular 6 96 596 70 1 0.442 faster 1 3.799802e+06 3.799804e+06 1.727
12 irregular 6 97 597 69 2 0.413 faster 1 3.799805e+06 3.799808e+06 2.676
12 irregular 6 98 598 51 2 0.474 slower 1 3.799809e+06 3.799811e+06 2.574
12 irregular 6 99 599 68 2 0.553 faster 1 3.799813e+06 3.799816e+06 2.661
12 irregular 6 100 600 68 2 0.586 faster 1 3.799817e+06 3.799820e+06 2.659
12 regular 7 1 601 53 1.500000e+00 0.373 faster 0 3.799835e+06 3.799837e+06 2.462
12 regular 7 2 602 52 1.500000e+00 0.384 slower 1 3.799839e+06 3.799841e+06 2.184
12 regular 7 3 603 68 1.500000e+00 0.139 faster 1 3.799843e+06 3.799845e+06 2.435
12 regular 7 4 604 53 1.500000e+00 0.373 faster 0 3.799846e+06 3.799849e+06 2.237
12 regular 7 5 605 68 1.500000e+00 0.568 faster 1 3.799850e+06 3.799853e+06 2.986
12 regular 7 6 606 68 1.500000e+00 0.338 slower 0 3.799854e+06 3.799856e+06 2.102
12 regular 7 7 607 51 1.500000e+00 0.245 slower 1 3.799857e+06 3.799859e+06 2.231
12 regular 7 8 608 68 1.500000e+00 0.143 faster 1 3.799860e+06 3.799862e+06 2.566
12 regular 7 9 609 68 1.500000e+00 0.477 faster 1 3.799864e+06 3.799866e+06 2.371
12 regular 7 10 610 53 1.500000e+00 0.268 slower 1 3.799867e+06 3.799869e+06 2.153
12 regular 7 11 611 53 1.500000e+00 0.436 slower 1 3.799871e+06 3.799873e+06 2.335
12 regular 7 12 612 54 1.500000e+00 0.272 slower 1 3.799874e+06 3.799876e+06 2.177
12 regular 7 13 613 54 1.500000e+00 0.172 slower 1 3.799877e+06 3.799879e+06 2.313
12 regular 7 14 614 55 1.500000e+00 0.251 slower 1 3.799880e+06 3.799882e+06 2.319
12 regular 7 15 615 65 1.500000e+00 0.108 faster 1 3.799883e+06 3.799885e+06 2.176
12 regular 7 16 616 64 1.500000e+00 0.335 slower 0 3.799886e+06 3.799888e+06 2.138
12 regular 7 17 617 65 1.500000e+00 0.296 slower 0 3.799889e+06 3.799891e+06 2.084
12 regular 7 18 618 54 1.500000e+00 0.402 faster 0 3.799892e+06 3.799895e+06 2.849
12 regular 7 19 619 67 1.500000e+00 0.363 faster 1 3.799896e+06 3.799899e+06 2.799
12 regular 7 20 620 53 1.500000e+00 0.302 slower 1 3.799900e+06 3.799902e+06 2.181
12 regular 7 21 621 66 1.500000e+00 0.119 slower 0 3.799903e+06 3.799906e+06 2.592
12 regular 7 22 622 53 1.500000e+00 0.156 faster 0 3.799906e+06 3.799909e+06 2.326
12 regular 7 23 623 68 1.500000e+00 0.292 slower 0 3.799910e+06 3.799912e+06 2.411
12 regular 7 24 624 51 1.500000e+00 0.274 slower 1 3.799913e+06 3.799915e+06 2.441
12 regular 7 25 625 51 1.500000e+00 0.496 slower 1 3.799918e+06 3.799920e+06 2.523
12 regular 7 26 626 52 1.500000e+00 0.321 faster 0 3.799921e+06 3.799924e+06 2.910
12 regular 7 27 627 69 1.500000e+00 0.246 slower 0 3.799925e+06 3.799927e+06 2.350
12 regular 7 28 628 50 1.500000e+00 0.512 slower 1 3.799928e+06 3.799931e+06 2.246
12 regular 7 29 629 50 1.500000e+00 0.448 slower 1 3.799932e+06 3.799934e+06 2.282
12 regular 7 30 630 51 1.500000e+00 0.126 slower 1 3.799935e+06 3.799937e+06 2.167
12 regular 7 31 631 51 1.500000e+00 0.533 slower 1 3.799938e+06 3.799940e+06 2.190
12 regular 7 32 632 52 1.500000e+00 0.466 slower 1 3.799941e+06 3.799944e+06 2.111
12 regular 7 33 633 68 1.500000e+00 0.480 slower 0 3.799945e+06 3.799947e+06 2.285
12 regular 7 34 634 69 1.500000e+00 0.369 slower 0 3.799948e+06 3.799950e+06 2.293
12 regular 7 35 635 50 1.500000e+00 0.426 slower 1 3.799951e+06 3.799954e+06 2.506
12 regular 7 36 636 69 1.500000e+00 0.496 faster 1 3.799955e+06 3.799957e+06 2.310
12 regular 7 37 637 69 1.500000e+00 0.562 slower 0 3.799958e+06 3.799961e+06 2.973
12 regular 7 38 638 70 1.500000e+00 0.553 slower 0 3.799963e+06 3.799965e+06 2.400
12 regular 7 39 639 71 1.500000e+00 0.514 slower 0 3.799966e+06 3.799969e+06 2.581
12 regular 7 40 640 72 1.500000e+00 0.589 faster 1 3.799970e+06 3.799972e+06 2.281
12 regular 7 41 641 49 1.500000e+00 0.447 slower 1 3.799975e+06 3.799978e+06 3.054
12 regular 7 42 642 49 1.500000e+00 0.582 slower 1 3.799979e+06 3.799981e+06 2.189
12 regular 7 43 643 50 1.500000e+00 0.459 faster 0 3.799982e+06 3.799984e+06 2.161
12 regular 7 44 644 71 1.500000e+00 0.501 slower 0 3.799985e+06 3.799988e+06 2.308
12 regular 7 45 645 72 1.500000e+00 0.416 slower 0 3.799989e+06 3.799992e+06 2.995
12 regular 7 46 646 73 1.500000e+00 0.273 slower 0 3.799993e+06 3.799996e+06 2.593
12 regular 7 47 647 46 1.500000e+00 0.346 slower 1 3.799997e+06 3.799999e+06 2.380
12 regular 7 48 648 46 1.500000e+00 0.180 slower 1 3.800000e+06 3.800002e+06 2.183
12 regular 7 49 649 47 1.500000e+00 0.329 slower 1 3.800003e+06 3.800005e+06 2.049
12 regular 7 50 650 47 1.500000e+00 0.187 faster 0 3.800006e+06 3.800008e+06 2.183
12 regular 7 51 651 74 1.500000e+00 0.287 slower 0 3.800009e+06 3.800012e+06 2.189
12 regular 7 52 652 45 1.500000e+00 0.293 slower 1 3.800013e+06 3.800015e+06 2.026
12 regular 7 53 653 74 1.500000e+00 0.406 faster 1 3.800016e+06 3.800018e+06 2.099
12 regular 7 54 654 74 1.500000e+00 0.102 faster 1 3.800019e+06 3.800021e+06 2.103
12 regular 7 55 655 47 1.500000e+00 0.382 slower 1 3.800022e+06 3.800024e+06 2.198
12 regular 7 56 656 73 1.500000e+00 0.276 faster 1 3.800025e+06 3.800027e+06 2.082
12 regular 7 57 657 72 1.500000e+00 0.446 slower 0 3.800028e+06 3.800030e+06 2.110
12 regular 7 58 658 73 1.500000e+00 0.235 faster 1 3.800031e+06 3.800033e+06 2.171
12 regular 7 59 659 73 1.500000e+00 0.238 faster 1 3.800034e+06 3.800037e+06 2.236
12 regular 7 60 660 72 1.500000e+00 0.383 slower 0 3.800038e+06 3.800040e+06 2.574
12 regular 7 61 661 47 1.500000e+00 0.521 slower 1 3.800042e+06 3.800044e+06 1.990
12 regular 7 62 662 73 1.500000e+00 0.487 slower 0 3.800045e+06 3.800047e+06 1.985
12 regular 7 63 663 74 1.500000e+00 0.364 faster 1 3.800048e+06 3.800051e+06 2.572
12 regular 7 64 664 73 1.500000e+00 0.498 faster 1 3.800052e+06 3.800054e+06 2.264
12 regular 7 65 665 47 1.500000e+00 0.521 slower 1 3.800055e+06 3.800057e+06 2.142
12 regular 7 66 666 48 1.500000e+00 0.598 slower 1 3.800059e+06 3.800061e+06 2.367
12 regular 7 67 667 72 1.500000e+00 0.368 slower 0 3.800062e+06 3.800064e+06 2.359
12 regular 7 68 668 73 1.500000e+00 0.418 faster 1 3.800065e+06 3.800068e+06 2.398
12 regular 7 69 669 48 1.500000e+00 0.541 none 2 3.800069e+06 3.800074e+06 4.499
12 regular 7 70 670 72 1.500000e+00 0.118 faster 1 3.800074e+06 3.800077e+06 2.248
12 regular 7 71 671 48 1.500000e+00 0.438 slower 1 3.800078e+06 3.800080e+06 2.360
12 regular 7 72 672 71 1.500000e+00 0.129 faster 1 3.800081e+06 3.800083e+06 2.214
12 regular 7 73 673 49 1.500000e+00 0.143 slower 1 3.800084e+06 3.800086e+06 2.147
12 regular 7 74 674 70 1.500000e+00 0.177 faster 1 3.800087e+06 3.800089e+06 2.171
12 regular 7 75 675 50 1.500000e+00 0.495 slower 1 3.800090e+06 3.800092e+06 2.408
12 regular 7 76 676 51 1.500000e+00 0.575 faster 0 3.800094e+06 3.800096e+06 2.583
12 regular 7 77 677 50 1.500000e+00 0.349 faster 0 3.800097e+06 3.800100e+06 2.268
12 regular 7 78 678 49 1.500000e+00 0.230 slower 1 3.800100e+06 3.800103e+06 2.216
12 regular 7 79 679 49 1.500000e+00 0.596 faster 0 3.800104e+06 3.800106e+06 2.255
12 regular 7 80 680 72 1.500000e+00 0.102 faster 1 3.800107e+06 3.800109e+06 2.338
12 regular 7 81 681 71 1.500000e+00 0.340 faster 1 3.800110e+06 3.800113e+06 2.693
12 regular 7 82 682 71 1.500000e+00 0.436 faster 1 3.800114e+06 3.800116e+06 2.359
12 regular 7 83 683 70 1.500000e+00 0.296 faster 1 3.800117e+06 3.800120e+06 2.333
12 regular 7 84 684 70 1.500000e+00 0.210 faster 1 3.800120e+06 3.800123e+06 2.241
12 regular 7 85 685 51 1.500000e+00 0.418 slower 1 3.800124e+06 3.800126e+06 2.310
12 regular 7 86 686 69 1.500000e+00 0.430 faster 1 3.800127e+06 3.800129e+06 2.132
12 regular 7 87 687 68 1.500000e+00 0.408 faster 1 3.800130e+06 3.800133e+06 2.651
12 regular 7 88 688 68 1.500000e+00 0.132 faster 1 3.800134e+06 3.800136e+06 2.616
12 regular 7 89 689 53 1.500000e+00 0.496 slower 1 3.800137e+06 3.800140e+06 2.299
12 regular 7 90 690 67 1.500000e+00 0.389 slower 0 3.800141e+06 3.800144e+06 3.151
12 regular 7 91 691 52 1.500000e+00 0.168 faster 0 3.800145e+06 3.800147e+06 2.430
12 regular 7 92 692 51 1.500000e+00 0.597 slower 1 3.800148e+06 3.800151e+06 2.196
12 regular 7 93 693 52 1.500000e+00 0.190 faster 0 3.800151e+06 3.800154e+06 2.389
12 regular 7 94 694 51 1.500000e+00 0.524 slower 1 3.800155e+06 3.800157e+06 2.137
12 regular 7 95 695 51 1.500000e+00 0.485 none 2 3.800159e+06 3.800163e+06 4.500
12 regular 7 96 696 69 1.500000e+00 0.248 faster 1 3.800164e+06 3.800166e+06 2.288
12 regular 7 97 697 52 1.500000e+00 0.220 slower 1 3.800168e+06 3.800171e+06 2.624
12 regular 7 98 698 52 1.500000e+00 0.113 faster 0 3.800171e+06 3.800174e+06 2.326
12 regular 7 99 699 69 1.500000e+00 0.123 faster 1 3.800175e+06 3.800177e+06 2.190
12 regular 7 100 700 68 1.500000e+00 0.501 slower 0 3.800179e+06 3.800181e+06 2.284
12 irregular 8 1 701 51 2.500000e+00 0.217 faster 0 3.800383e+06 3.800386e+06 3.587
12 irregular 8 2 702 70 1.500000e+00 0.238 faster 1 3.800387e+06 3.800390e+06 2.472
12 irregular 8 3 703 70 2.500000e+00 0.378 faster 1 3.800391e+06 3.800394e+06 3.680
12 irregular 8 4 704 69 1.500000e+00 0.130 faster 1 3.800395e+06 3.800397e+06 2.136
12 irregular 8 5 705 69 2 0.196 faster 1 3.800399e+06 3.800401e+06 2.650
12 irregular 8 6 706 52 1.500000e+00 0.519 slower 1 3.800403e+06 3.800405e+06 2.255
12 irregular 8 7 707 52 1.500000e+00 0.346 faster 0 3.800406e+06 3.800408e+06 2.111
12 irregular 8 8 708 51 3 0.579 slower 1 3.800409e+06 3.800413e+06 3.731
12 irregular 8 9 709 52 2 0.111 faster 0 3.800414e+06 3.800417e+06 2.900
12 irregular 8 10 710 69 2 0.584 faster 1 3.800418e+06 3.800420e+06 2.723
12 irregular 8 11 711 51 3 0.379 slower 1 3.800422e+06 3.800426e+06 3.666
12 irregular 8 12 712 52 2.500000e+00 0.123 faster 0 3.800427e+06 3.800430e+06 3.266
12 irregular 8 13 713 51 3 0.397 slower 1 3.800431e+06 3.800435e+06 3.702
12 irregular 8 14 714 69 2 0.527 faster 1 3.800436e+06 3.800439e+06 2.664
12 irregular 8 15 715 52 1 0.179 faster 0 3.800440e+06 3.800442e+06 1.984
12 irregular 8 16 716 51 1.500000e+00 0.335 slower 1 3.800443e+06 3.800445e+06 2.318
12 irregular 8 17 717 69 1 0.274 faster 1 3.800446e+06 3.800448e+06 1.675
12 irregular 8 18 718 52 2 0.231 faster 0 3.800449e+06 3.800452e+06 2.919
12 irregular 8 19 719 69 2.500000e+00 0.420 slower 0 3.800453e+06 3.800456e+06 3.206
12 irregular 8 20 720 70 2 0.341 faster 1 3.800457e+06 3.800460e+06 2.651
12 irregular 8 21 721 70 2.500000e+00 0.507 faster 1 3.800461e+06 3.800464e+06 3.357
12 irregular 8 22 722 69 2.500000e+00 0.148 faster 1 3.800465e+06 3.800469e+06 3.323
12 irregular 8 23 723 51 2 0.258 slower 1 3.800470e+06 3.800472e+06 2.678
12 irregular 8 24 724 68 1.500000e+00 0.107 faster 1 3.800473e+06 3.800476e+06 2.464
12 irregular 8 25 725 52 2.500000e+00 0.276 slower 1 3.800477e+06 3.800480e+06 3.284
12 irregular 8 26 726 53 1.500000e+00 0.136 slower 1 3.800481e+06 3.800484e+06 2.983
12 irregular 8 27 727 53 2 0.450 slower 1 3.800486e+06 3.800488e+06 2.742
12 irregular 8 28 728 54 1 0.290 faster 0 3.800489e+06 3.800491e+06 1.773
12 irregular 8 29 729 53 1.500000e+00 0.111 slower 1 3.800492e+06 3.800494e+06 2.542
12 irregular 8 30 730 67 2.500000e+00 0.532 slower 0 3.800496e+06 3.800499e+06 3.123
12 irregular 8 31 731 52 1 0.303 faster 0 3.800500e+06 3.800502e+06 2.143
12 irregular 8 32 732 69 2.500000e+00 0.393 faster 1 3.800503e+06 3.800506e+06 3.194
12 irregular 8 33 733 68 1.500000e+00 0.117 faster 1 3.800507e+06 3.800510e+06 2.203
12 irregular 8 34 734 52 3 0.167 faster 0 3.800511e+06 3.800515e+06 3.747
12 irregular 8 35 735 69 2 0.435 slower 0 3.800516e+06 3.800519e+06 2.753
12 irregular 8 36 736 50 1 0.429 none 2 3.800520e+06 3.800524e+06 3.999
12 irregular 8 37 737 50 2 0.261 slower 1 3.800525e+06 3.800527e+06 2.796
12 irregular 8 38 738 69 1.500000e+00 0.278 faster 1 3.800529e+06 3.800531e+06 2.623
12 irregular 8 39 739 69 2 0.185 slower 0 3.800532e+06 3.800535e+06 2.811
12 irregular 8 40 740 50 1 0.270 faster 0 3.800536e+06 3.800538e+06 1.825
12 irregular 8 41 741 71 2.500000e+00 0.309 slower 0 3.800539e+06 3.800542e+06 3.457
12 irregular 8 42 742 72 3 0.470 slower 0 3.800543e+06 3.800547e+06 4.013
12 irregular 8 43 743 47 1.500000e+00 0.129 faster 0 3.800549e+06 3.800553e+06 3.949
12 irregular 8 44 744 74 2.500000e+00 0.111 faster 1 3.800553e+06 3.800557e+06 3.273
12 irregular 8 45 745 47 2.500000e+00 0.379 slower 1 3.800558e+06 3.800561e+06 3.114
12 irregular 8 46 746 47 1 0.547 slower 1 3.800562e+06 3.800564e+06 1.707
12 irregular 8 47 747 48 3 0.451 slower 1 3.800565e+06 3.800569e+06 3.605
12 irregular 8 48 748 72 3 0.175 faster 1 3.800570e+06 3.800574e+06 3.578
12 irregular 8 49 749 49 3 0.497 slower 1 3.800576e+06 3.800580e+06 3.805
12 irregular 8 50 750 49 1.500000e+00 0.141 faster 0 3.800581e+06 3.800583e+06 2.301
12 irregular 8 51 751 48 3 0.429 slower 1 3.800584e+06 3.800588e+06 3.773
12 irregular 8 52 752 71 1 0.147 faster 1 3.800589e+06 3.800591e+06 1.741
12 irregular 8 53 753 49 1.500000e+00 0.364 slower 1 3.800592e+06 3.800594e+06 2.264
12 irregular 8 54 754 70 3 0.241 faster 1 3.800595e+06 3.800599e+06 3.711
12 irregular 8 55 755 50 1 0.190 slower 1 3.800599e+06 3.800601e+06 1.634
12 irregular 8 56 756 69 3 0.575 faster 1 3.800602e+06 3.800606e+06 3.699
12 irregular 8 57 757 51 2.500000e+00 0.113 slower 1 3.800610e+06 3.800613e+06 3.200
12 irregular 8 58 758 68 1.500000e+00 0.204 faster 1 3.800614e+06 3.800616e+06 2.175
12 irregular 8 59 759 68 1 0.286 faster 1 3.800619e+06 3.800621e+06 1.754
12 irregular 8 60 760 67 1 0.210 faster 1 3.800622e+06 3.800624e+06 1.737
12 irregular 8 61 761 67 1 0.495 slower 0 3.800625e+06 3.800627e+06 1.669
12 irregular 8 62 762 68 3 0.228 faster 1 3.800628e+06 3.800632e+06 3.765
12 irregular 8 63 763 53 2 0.512 faster 0 3.800634e+06 3.800636e+06 2.642
12 irregular 8 64 764 68 3 0.260 faster 1 3.800638e+06 3.800641e+06 3.597
12 irregular 8 65 765 52 2.500000e+00 0.393 slower 1 3.800643e+06 3.800646e+06 3.360
12 irregular 8 66 766 53 1 0.547 none 2 3.800648e+06 3.800652e+06 3.999
12 irregular 8 67 767 67 2.500000e+00 0.504 slower 0 3.800653e+06 3.800657e+06 3.162
12 irregular 8 68 768 68 1 0.389 faster 1 3.800658e+06 3.800660e+06 1.634
12 irregular 8 69 769 52 2 0.500 slower 1 3.800661e+06 3.800664e+06 2.735
12 irregular 8 70 770 67 3 0.463 faster 1 3.800665e+06 3.800668e+06 3.684
12 irregular 8 71 771 67 2 0.581 slower 0 3.800670e+06 3.800673e+06 2.629
12 irregular 8 72 772 68 1.500000e+00 0.593 faster 1 3.800674e+06 3.800676e+06 2.149
12 irregular 8 73 773 53 2 0.318 faster 0 3.800677e+06 3.800680e+06 2.742
12 irregular 8 74 774 68 1 0.233 faster 1 3.800681e+06 3.800683e+06 1.772
12 irregular 8 75 775 52 2 0.324 slower 1 3.800684e+06 3.800686e+06 2.618
12 irregular 8 76 776 67 2 0.545 faster 1 3.800688e+06 3.800690e+06 2.662
12 irregular 8 77 777 53 3 0.228 faster 0 3.800691e+06 3.800695e+06 4.317
12 irregular 8 78 778 52 1 0.211 slower 1 3.800696e+06 3.800698e+06 1.794
12 irregular 8 79 779 53 1 0.279 faster 0 3.800699e+06 3.800701e+06 1.690
12 irregular 8 80 780 68 3 0.142 slower 0 3.800702e+06 3.800705e+06 3.891
12 irregular 8 81 781 51 2.500000e+00 0.528 faster 0 3.800707e+06 3.800710e+06 3.522
12 irregular 8 82 782 70 1.500000e+00 0.413 faster 1 3.800711e+06 3.800714e+06 2.519
12 irregular 8 83 783 50 1.500000e+00 0.517 slower 1 3.800715e+06 3.800718e+06 2.209
12 irregular 8 84 784 69 1.500000e+00 0.404 faster 1 3.800719e+06 3.800721e+06 2.201
12 irregular 8 85 785 69 1 0.325 faster 1 3.800722e+06 3.800724e+06 1.815
12 irregular 8 86 786 68 1 0.346 faster 1 3.800725e+06 3.800727e+06 1.834
12 irregular 8 87 787 52 2.500000e+00 0.397 slower 1 3.800728e+06 3.800731e+06 3.173
12 irregular 8 88 788 53 2.500000e+00 0.344 faster 0 3.800732e+06 3.800736e+06 3.218
12 irregular 8 89 789 68 1 0.138 faster 1 3.800736e+06 3.800738e+06 1.781
12 irregular 8 90 790 68 1.500000e+00 0.449 faster 1 3.800739e+06 3.800742e+06 2.197
12 irregular 8 91 791 67 2 0.111 faster 1 3.800742e+06 3.800745e+06 2.554
12 irregular 8 92 792 67 3 0.288 faster 1 3.800746e+06 3.800750e+06 3.737
12 irregular 8 93 793 66 2.500000e+00 0.325 slower 0 3.800751e+06 3.800754e+06 3.187
12 irregular 8 94 794 53 1.500000e+00 0.584 faster 0 3.800756e+06 3.800758e+06 2.105
12 irregular 8 95 795 52 3 0.354 slower 1 3.800759e+06 3.800763e+06 3.829
12 irregular 8 96 796 52 2.500000e+00 0.192 slower 1 3.800763e+06 3.800767e+06 3.326
12 irregular 8 97 797 67 3 0.481 faster 1 3.800768e+06 3.800772e+06 3.616
12 irregular 8 98 798 67 2 0.425 faster 1 3.800773e+06 3.800776e+06 2.754
12 irregular 8 99 799 54 2 0.204 faster 0 3.800777e+06 3.800780e+06 2.606
12 irregular 8 100 800 53 3 0.123 slower 1 3.800780e+06 3.800784e+06 3.626
12 regular 9 1 801 67 1 0.218 faster 1 3.800800e+06 3.800802e+06 1.782
12 regular 9 2 802 54 1 0.545 faster 0 3.800803e+06 3.800805e+06 1.915
12 regular 9 3 803 53 1 0.389 slower 1 3.800806e+06 3.800808e+06 1.617
12 regular 9 4 804 67 1 0.312 slower 0 3.800809e+06 3.800810e+06 1.605
12 regular 9 5 805 52 1 0.493 faster 0 3.800812e+06 3.800813e+06 1.585
12 regular 9 6 806 51 1 0.266 slower 1 3.800814e+06 3.800816e+06 1.582
12 regular 9 7 807 52 1 0.136 faster 0 3.800816e+06 3.800818e+06 1.570
12 regular 9 8 808 69 1 0.582 faster 1 3.800819e+06 3.800821e+06 1.641
12 regular 9 9 809 51 1 0.236 faster 0 3.800822e+06 3.800824e+06 2.003
12 regular 9 10 810 50 1 0.364 slower 1 3.800825e+06 3.800826e+06 1.644
12 regular 9 11 811 51 1 0.142 faster 0 3.800827e+06 3.800829e+06 1.887
12 regular 9 12 812 50 1 0.288 faster 0 3.800830e+06 3.800832e+06 1.651
12 regular 9 13 813 49 1 0.239 slower 1 3.800833e+06 3.800834e+06 1.581
12 regular 9 14 814 71 1 0.244 faster 1 3.800835e+06 3.800837e+06 1.607
12 regular 9 15 815 70 1 0.251 slower 0 3.800837e+06 3.800839e+06 1.635
12 regular 9 16 816 71 1 0.105 faster 1 3.800840e+06 3.800842e+06 1.583
12 regular 9 17 817 71 1 0.396 faster 1 3.800843e+06 3.800845e+06 1.573
12 regular 9 18 818 70 1 0.486 faster 1 3.800846e+06 3.800848e+06 1.532
12 regular 9 19 819 70 1 0.290 faster 1 3.800848e+06 3.800850e+06 1.674
12 regular 9 20 820 51 1 0.201 slower 1 3.800851e+06 3.800853e+06 1.572
12 regular 9 21 821 51 1 0.327 slower 1 3.800854e+06 3.800855e+06 1.718
12 regular 9 22 822 68 1 0.314 faster 1 3.800856e+06 3.800858e+06 1.630
12 regular 9 23 823 68 1 0.367 faster 1 3.800859e+06 3.800861e+06 1.512
12 regular 9 24 824 53 1 0.314 slower 1 3.800862e+06 3.800863e+06 1.932
12 regular 9 25 825 53 1 0.113 faster 0 3.800864e+06 3.800866e+06 1.539
12 regular 9 26 826 68 1 0.155 faster 1 3.800867e+06 3.800868e+06 1.630
12 regular 9 27 827 67 1 0.226 slower 0 3.800869e+06 3.800871e+06 1.513
12 regular 9 28 828 68 1 0.113 faster 1 3.800872e+06 3.800873e+06 1.558
12 regular 9 29 829 52 1 0.150 slower 1 3.800874e+06 3.800876e+06 1.707
12 regular 9 30 830 53 1 0.257 faster 0 3.800877e+06 3.800878e+06 1.510
12 regular 9 31 831 68 1 0.580 slower 0 3.800879e+06 3.800881e+06 1.685
12 regular 9 32 832 69 1 0.368 faster 1 3.800882e+06 3.800884e+06 1.961
12 regular 9 33 833 69 1 0.401 faster 1 3.800885e+06 3.800887e+06 1.603
12 regular 9 34 834 52 1 0.425 faster 0 3.800888e+06 3.800891e+06 3.366
12 regular 9 35 835 51 1 0.340 slower 1 3.800892e+06 3.800894e+06 1.602
12 regular 9 36 836 51 1 0.532 faster 0 3.800895e+06 3.800896e+06 1.649
12 regular 9 37 837 50 1 0.420 slower 1 3.800898e+06 3.800899e+06 1.787
12 regular 9 38 838 69 1 0.599 faster 1 3.800901e+06 3.800902e+06 1.646
12 regular 9 39 839 51 1 0.499 slower 1 3.800905e+06 3.800906e+06 1.734
12 regular 9 40 840 52 1 0.595 faster 0 3.800908e+06 3.800909e+06 1.743
12 regular 9 41 841 51 1 0.234 slower 1 3.800910e+06 3.800912e+06 1.601
12 regular 9 42 842 51 1 0.166 slower 1 3.800913e+06 3.800915e+06 1.811
12 regular 9 43 843 52 1 0.460 slower 1 3.800916e+06 3.800917e+06 1.618
12 regular 9 44 844 68 1 0.253 faster 1 3.800918e+06 3.800920e+06 1.556
12 regular 9 45 845 67 1 0.387 slower 0 3.800921e+06 3.800923e+06 1.650
12 regular 9 46 846 68 1 0.182 slower 0 3.800923e+06 3.800925e+06 1.636
12 regular 9 47 847 51 1 0.226 faster 0 3.800926e+06 3.800927e+06 1.653
12 regular 9 48 848 50 1 0.266 slower 1 3.800931e+06 3.800932e+06 1.615
12 regular 9 49 849 70 1 0.338 slower 0 3.800933e+06 3.800935e+06 1.576
12 regular 9 50 850 49 1 0.430 faster 0 3.800936e+06 3.800938e+06 1.670
12 regular 9 51 851 48 1 0.308 slower 1 3.800938e+06 3.800940e+06 1.619
12 regular 9 52 852 49 1 0.271 slower 1 3.800941e+06 3.800943e+06 1.603
12 regular 9 53 853 49 1 0.226 slower 1 3.800944e+06 3.800945e+06 1.571
12 regular 9 54 854 70 1 0.102 faster 1 3.800946e+06 3.800948e+06 1.769
12 regular 9 55 855 70 1 0.275 faster 1 3.800949e+06 3.800950e+06 1.660
12 regular 9 56 856 51 1 0.389 slower 1 3.800951e+06 3.800954e+06 2.117
12 regular 9 57 857 51 1 0.434 slower 1 3.800955e+06 3.800956e+06 1.741
12 regular 9 58 858 68 1 0.588 faster 1 3.800958e+06 3.800959e+06 1.618
12 regular 9 59 859 68 1 0.265 slower 0 3.800960e+06 3.800962e+06 1.715
12 regular 9 60 860 69 1 0.571 faster 1 3.800963e+06 3.800965e+06 1.776
12 regular 9 61 861 68 1 0.141 slower 0 3.800966e+06 3.800968e+06 1.710
12 regular 9 62 862 51 1 0.396 faster 0 3.800970e+06 3.800971e+06 1.613
12 regular 9 63 863 70 1 0.214 slower 0 3.800973e+06 3.800974e+06 1.570
12 regular 9 64 864 71 1 0.585 faster 1 3.800975e+06 3.800977e+06 1.679
12 regular 9 65 865 49 1 0.396 slower 1 3.800978e+06 3.800980e+06 1.528
12 regular 9 66 866 70 1 0.358 slower 0 3.800981e+06 3.800983e+06 1.891
12 regular 9 67 867 49 1 0.591 faster 0 3.800984e+06 3.800986e+06 1.461
12 regular 9 68 868 72 1 0.248 faster 1 3.800987e+06 3.800989e+06 1.637
12 regular 9 69 869 72 1 0.216 slower 0 3.800990e+06 3.800992e+06 1.570
12 regular 9 70 870 73 1 0.247 faster 1 3.800992e+06 3.800994e+06 1.554
12 regular 9 71 871 48 1 0.156 none 2 3.800995e+06 3.800999e+06 3.999
12 regular 9 72 872 72 1 0.366 faster 1 3.801000e+06 3.801001e+06 1.564
12 regular 9 73 873 72 1 0.165 slower 0 3.801003e+06 3.801005e+06 1.778
12 regular 9 74 874 73 1 0.596 faster 1 3.801006e+06 3.801008e+06 1.709
12 regular 9 75 875 48 1 0.428 slower 1 3.801009e+06 3.801010e+06 1.741
12 regular 9 76 876 72 1 0.538 faster 1 3.801012e+06 3.801013e+06 1.566
12 regular 9 77 877 71 1 0.195 faster 1 3.801014e+06 3.801016e+06 1.734
12 regular 9 78 878 49 1 0.401 slower 1 3.801017e+06 3.801018e+06 1.609
12 regular 9 79 879 70 1 0.106 faster 1 3.801019e+06 3.801021e+06 1.640
12 regular 9 80 880 70 1 0.518 faster 1 3.801022e+06 3.801024e+06 1.723
12 regular 9 81 881 69 1 0.498 faster 1 3.801025e+06 3.801027e+06 1.773
12 regular 9 82 882 51 1 0.123 slower 1 3.801027e+06 3.801029e+06 1.566
12 regular 9 83 883 52 1 0.414 slower 1 3.801030e+06 3.801032e+06 2.049
12 regular 9 84 884 52 1 0.400 faster 0 3.801033e+06 3.801035e+06 1.536
12 regular 9 85 885 69 1 0.402 faster 1 3.801036e+06 3.801037e+06 1.702
12 regular 9 86 886 52 1 0.257 slower 1 3.801038e+06 3.801040e+06 1.597
12 regular 9 87 887 68 1 0.133 faster 1 3.801041e+06 3.801043e+06 1.449
12 regular 9 88 888 53 1 0.586 slower 1 3.801044e+06 3.801046e+06 1.714
12 regular 9 89 889 67 1 0.279 slower 0 3.801047e+06 3.801048e+06 1.706
12 regular 9 90 890 52 1 0.504 faster 0 3.801049e+06 3.801051e+06 2.035
12 regular 9 91 891 69 1 0.568 faster 1 3.801053e+06 3.801054e+06 1.496
12 regular 9 92 892 52 1 0.284 slower 1 3.801056e+06 3.801057e+06 1.684
12 regular 9 93 893 68 1 0.208 slower 0 3.801058e+06 3.801060e+06 1.992
12 regular 9 94 894 69 1 0.488 slower 0 3.801061e+06 3.801063e+06 1.545
12 regular 9 95 895 70 1 0.260 faster 1 3.801064e+06 3.801065e+06 1.610
12 regular 9 96 896 51 1 0.598 slower 1 3.801067e+06 3.801068e+06 1.653
12 regular 9 97 897 51 1 0.448 slower 1 3.801069e+06 3.801071e+06 1.765
12 regular 9 98 898 52 1 0.267 slower 1 3.801072e+06 3.801074e+06 2.360
12 regular 9 99 899 68 1 0.536 faster 1 3.801075e+06 3.801077e+06 1.723
12 regular 9 100 900 53 1 0.308 faster 0 3.801078e+06 3.801080e+06 1.689
12 irregular 10 1 901 68 2.500000e+00 0.489 faster 1 3.801148e+06 3.801151e+06 3.420
12 irregular 10 2 902 52 1 0.462 slower 1 3.801153e+06 3.801154e+06 1.758
12 irregular 10 3 903 53 1.500000e+00 0.365 faster 0 3.801155e+06 3.801158e+06 2.207
12 irregular 10 4 904 52 1.500000e+00 0.242 faster 0 3.801159e+06 3.801161e+06 2.247
12 irregular 10 5 905 51 3 0.164 slower 1 3.801162e+06 3.801166e+06 3.688
12 irregular 10 6 906 69 1.500000e+00 0.560 faster 1 3.801167e+06 3.801170e+06 2.272
12 irregular 10 7 907 68 1 0.309 faster 1 3.801171e+06 3.801173e+06 1.727
12 irregular 10 8 908 52 3 0.505 slower 1 3.801174e+06 3.801178e+06 3.641
12 irregular 10 9 909 67 1.500000e+00 0.558 faster 1 3.801179e+06 3.801182e+06 2.312
12 irregular 10 10 910 53 1 0.263 slower 1 3.801182e+06 3.801184e+06 1.761
12 irregular 10 11 911 66 1 0.156 faster 1 3.801185e+06 3.801187e+06 1.693
12 irregular 10 12 912 54 1 0.463 faster 0 3.801188e+06 3.801190e+06 1.738
12 irregular 10 13 913 67 1.500000e+00 0.143 slower 0 3.801191e+06 3.801193e+06 2.353
12 irregular 10 14 914 52 1 0.391 faster 0 3.801194e+06 3.801196e+06 1.786
12 irregular 10 15 915 69 1 0.473 faster 1 3.801197e+06 3.801199e+06 1.822
12 irregular 10 16 916 52 3 0.468 slower 1 3.801200e+06 3.801204e+06 3.530
12 irregular 10 17 917 68 1.500000e+00 0.554 faster 1 3.801205e+06 3.801207e+06 2.171
12 irregular 10 18 918 53 2 0.165 faster 0 3.801208e+06 3.801211e+06 2.701
12 irregular 10 19 919 52 1 0.231 slower 1 3.801212e+06 3.801213e+06 1.629
12 irregular 10 20 920 68 1.500000e+00 0.317 faster 1 3.801215e+06 3.801217e+06 2.141
12 irregular 10 21 921 67 3 0.523 slower 0 3.801218e+06 3.801222e+06 3.672
12 irregular 10 22 922 52 2.500000e+00 0.261 slower 1 3.801223e+06 3.801226e+06 3.169
12 irregular 10 23 923 68 2.500000e+00 0.493 faster 1 3.801227e+06 3.801231e+06 3.262
12 irregular 10 24 924 53 2.500000e+00 0.571 faster 0 3.801232e+06 3.801235e+06 3.272
12 irregular 10 25 925 68 1.500000e+00 0.505 faster 1 3.801236e+06 3.801239e+06 2.496
12 irregular 10 26 926 68 1.500000e+00 0.528 faster 1 3.801240e+06 3.801242e+06 2.229
12 irregular 10 27 927 67 2.500000e+00 0.478 faster 1 3.801244e+06 3.801247e+06 3.109
12 irregular 10 28 928 53 2 0.337 slower 1 3.801248e+06 3.801251e+06 2.871
12 irregular 10 29 929 66 3 0.457 slower 0 3.801252e+06 3.801256e+06 3.603
12 irregular 10 30 930 67 3 0.477 faster 1 3.801257e+06 3.801261e+06 3.817
12 irregular 10 31 931 67 2 0.405 slower 0 3.801262e+06 3.801265e+06 2.711
12 irregular 10 32 932 52 2.500000e+00 0.164 slower 1 3.801266e+06 3.801269e+06 3.228
12 irregular 10 33 933 67 1.500000e+00 0.280 slower 0 3.801270e+06 3.801272e+06 2.340
12 irregular 10 34 934 52 3 0.252 slower 1 3.801273e+06 3.801277e+06 3.636
12 irregular 10 35 935 52 1.500000e+00 0.541 faster 0 3.801278e+06 3.801280e+06 2.189
12 irregular 10 36 936 69 2.500000e+00 0.237 faster 1 3.801281e+06 3.801285e+06 3.227
12 irregular 10 37 937 52 2.500000e+00 0.198 slower 1 3.801285e+06 3.801289e+06 3.140
12 irregular 10 38 938 52 1.500000e+00 0.385 faster 0 3.801290e+06 3.801293e+06 2.601
12 irregular 10 39 939 51 1 0.558 faster 0 3.801294e+06 3.801296e+06 1.800
12 irregular 10 40 940 70 2.500000e+00 0.473 slower 0 3.801297e+06 3.801301e+06 3.476
12 irregular 10 41 941 71 1.500000e+00 0.316 faster 1 3.801302e+06 3.801304e+06 2.344
12 irregular 10 42 942 50 3 0.245 faster 0 3.801305e+06 3.801309e+06 3.832
12 irregular 10 43 943 71 2.500000e+00 0.323 faster 1 3.801310e+06 3.801314e+06 3.169
12 irregular 10 44 944 71 3 0.403 slower 0 3.801315e+06 3.801318e+06 3.615
12 irregular 10 45 945 72 1 0.276 faster 1 3.801320e+06 3.801321e+06 1.684
12 irregular 10 46 946 49 2.500000e+00 0.438 slower 1 3.801323e+06 3.801326e+06 3.272
12 irregular 10 47 947 49 1 0.201 faster 0 3.801327e+06 3.801329e+06 1.862
12 irregular 10 48 948 72 3 0.152 faster 1 3.801330e+06 3.801334e+06 3.944
12 irregular 10 49 949 71 1 0.187 faster 1 3.801335e+06 3.801337e+06 1.740
12 irregular 10 50 950 71 1 0.422 faster 1 3.801339e+06 3.801341e+06 1.710
12 irregular 10 51 951 70 1 0.545 slower 0 3.801342e+06 3.801343e+06 1.579
12 irregular 10 52 952 71 1.500000e+00 0.322 faster 1 3.801344e+06 3.801347e+06 2.238
12 irregular 10 53 953 71 2 0.579 slower 0 3.801348e+06 3.801351e+06 2.763
12 irregular 10 54 954 72 1 0.327 faster 1 3.801352e+06 3.801354e+06 1.688
12 irregular 10 55 955 49 1.500000e+00 0.411 slower 1 3.801355e+06 3.801357e+06 2.122
12 irregular 10 56 956 49 1 0.291 slower 1 3.801358e+06 3.801360e+06 1.586
12 irregular 10 57 957 70 2 0.389 slower 0 3.801361e+06 3.801364e+06 2.727
12 irregular 10 58 958 49 3 0.300 slower 1 3.801366e+06 3.801370e+06 4.022
12 irregular 10 59 959 49 2 0.170 faster 0 3.801370e+06 3.801373e+06 2.671
12 irregular 10 60 960 48 1 0.457 slower 1 3.801375e+06 3.801377e+06 1.739
12 irregular 10 61 961 71 3 0.514 faster 1 3.801378e+06 3.801381e+06 3.774
12 irregular 10 62 962 49 1.500000e+00 0.498 slower 1 3.801383e+06 3.801385e+06 2.103
12 irregular 10 63 963 70 1 0.218 faster 1 3.801386e+06 3.801388e+06 1.548
12 irregular 10 64 964 50 2 0.424 slower 1 3.801389e+06 3.801391e+06 2.684
12 irregular 10 65 965 69 3 0.114 faster 1 3.801392e+06 3.801396e+06 3.655
12 irregular 10 66 966 69 2.500000e+00 0.346 faster 1 3.801397e+06 3.801400e+06 3.335
12 irregular 10 67 967 68 2 0.180 faster 1 3.801401e+06 3.801404e+06 2.726
12 irregular 10 68 968 68 2 0.331 faster 1 3.801405e+06 3.801408e+06 2.591
12 irregular 10 69 969 53 1.500000e+00 0.408 slower 1 3.801409e+06 3.801411e+06 2.168
12 irregular 10 70 970 53 3 0.220 slower 1 3.801412e+06 3.801416e+06 3.733
12 irregular 10 71 971 54 2 0.171 faster 0 3.801417e+06 3.801420e+06 2.673
12 irregular 10 72 972 53 2 0.120 faster 0 3.801420e+06 3.801423e+06 2.707
12 irregular 10 73 973 52 2.500000e+00 0.516 slower 1 3.801424e+06 3.801428e+06 3.203
12 irregular 10 74 974 52 2 0.239 faster 0 3.801428e+06 3.801431e+06 2.709
12 irregular 10 75 975 51 2.500000e+00 0.176 faster 0 3.801432e+06 3.801435e+06 3.247
12 irregular 10 76 976 50 3 0.350 slower 1 3.801436e+06 3.801440e+06 3.585
12 irregular 10 77 977 51 1.500000e+00 0.392 faster 0 3.801441e+06 3.801444e+06 2.266
12 irregular 10 78 978 50 3 0.143 slower 1 3.801444e+06 3.801448e+06 3.659
12 irregular 10 79 979 70 3 0.588 faster 1 3.801450e+06 3.801453e+06 3.730
12 irregular 10 80 980 69 2 0.406 faster 1 3.801455e+06 3.801458e+06 2.668
12 irregular 10 81 981 69 2.500000e+00 0.571 faster 1 3.801459e+06 3.801462e+06 3.117
12 irregular 10 82 982 68 3 0.226 faster 1 3.801463e+06 3.801467e+06 3.685
12 irregular 10 83 983 52 2.500000e+00 0.430 slower 1 3.801468e+06 3.801471e+06 3.147
12 irregular 10 84 984 67 2 0.305 faster 1 3.801472e+06 3.801475e+06 2.635
12 irregular 10 85 985 53 2 0.253 slower 1 3.801476e+06 3.801479e+06 2.656
12 irregular 10 86 986 66 2 0.305 faster 1 3.801480e+06 3.801482e+06 2.613
12 irregular 10 87 987 54 1 0.327 faster 0 3.801483e+06 3.801485e+06 1.844
12 irregular 10 88 988 67 1 0.354 faster 1 3.801486e+06 3.801488e+06 1.720
12 irregular 10 89 989 66 2.500000e+00 0.344 slower 0 3.801489e+06 3.801492e+06 3.205
12 irregular 10 90 990 53 2.500000e+00 0.147 slower 1 3.801493e+06 3.801496e+06 3.122
12 irregular 10 91 991 67 2.500000e+00 0.416 faster 1 3.801497e+06 3.801500e+06 3.163
12 irregular 10 92 992 54 2 0.265 faster 0 3.801501e+06 3.801504e+06 2.719
12 irregular 10 93 993 67 2 0.177 faster 1 3.801505e+06 3.801507e+06 2.769
12 irregular 10 94 994 53 2 0.196 faster 0 3.801508e+06 3.801511e+06 2.800
12 irregular 10 95 995 68 3 0.488 slower 0 3.801512e+06 3.801516e+06 3.707
12 irregular 10 96 996 51 3 0.367 slower 1 3.801517e+06 3.801521e+06 3.836
12 irregular 10 97 997 52 2.500000e+00 0.427 slower 1 3.801523e+06 3.801526e+06 3.563
12 irregular 10 98 998 52 1.500000e+00 0.388 slower 1 3.801528e+06 3.801530e+06 2.405
12 irregular 10 99 999 67 2 0.335 faster 1 3.801531e+06 3.801534e+06 2.691
12 irregular 10 100 1000 53 1.500000e+00 0.427 faster 0 3.801535e+06 3.801537e+06 2.224
