subNo condition blockNo trialNo trialID currentFrequency cueTargetInterval randomPreCueInterval response responseAccuracy startTime responseTime RT
23 irregular 1 1 1 75 1 0.327 faster 1 2.515825e+05 2.515842e+05 1.767
23 irregular 1 2 2 75 3 0.352 slower 0 2.515862e+05 2.515905e+05 4.288
23 irregular 1 3 3 43 1 0.428 slower 1 2.515916e+05 2.515940e+05 2.425
23 irregular 1 4 4 45 2.500000e+00 0.421 slower 1 2.515951e+05 2.515985e+05 3.382
23 irregular 1 5 5 75 1.500000e+00 0.497 faster 1 2.516001e+05 2.516023e+05 2.129
23 irregular 1 6 6 47 2 0.475 slower 1 2.516039e+05 2.516067e+05 2.813
23 irregular 1 7 7 73 1.500000e+00 0.322 faster 1 2.516077e+05 2.516101e+05 2.376
23 irregular 1 8 8 71 2 0.470 slower 0 2.516116e+05 2.516147e+05 3.083
23 irregular 1 9 9 73 1.500000e+00 0.529 faster 1 2.516159e+05 2.516181e+05 2.222
23 irregular 1 10 10 73 1.500000e+00 0.410 faster 1 2.516192e+05 2.516216e+05 2.431
23 irregular 1 11 11 71 2.500000e+00 0.425 faster 1 2.516227e+05 2.516262e+05 3.498
23 irregular 1 12 12 71 1.500000e+00 0.162 faster 1 2.516275e+05 2.516302e+05 2.615
23 irregular 1 13 13 70 3 0.176 slower 0 2.516310e+05 2.516350e+05 4.015
23 irregular 1 14 14 71 2 0.226 faster 1 2.516363e+05 2.516395e+05 3.194
23 irregular 1 15 15 49 3 0.418 faster 0 2.516406e+05 2.516445e+05 3.901
23 irregular 1 16 16 48 2.500000e+00 0.199 slower 1 2.516459e+05 2.516498e+05 3.924
23 irregular 1 17 17 71 2 0.260 faster 1 2.516513e+05 2.516541e+05 2.882
23 irregular 1 18 18 49 2.500000e+00 0.165 faster 0 2.516550e+05 2.516585e+05 3.464
23 irregular 1 19 19 48 2 0.254 slower 1 2.516594e+05 2.516622e+05 2.778
23 irregular 1 20 20 49 3 0.520 slower 1 2.516639e+05 2.516677e+05 3.794
23 irregular 1 21 21 49 2 0.575 slower 1 2.516693e+05 2.516721e+05 2.834
23 irregular 1 22 22 50 1 0.410 slower 1 2.516732e+05 2.516752e+05 1.924
23 irregular 1 23 23 50 3 0.347 slower 1 2.516762e+05 2.516805e+05 4.253
23 irregular 1 24 24 69 1.500000e+00 0.460 slower 0 2.516820e+05 2.516847e+05 2.669
23 irregular 1 25 25 70 1 0.399 faster 1 2.516862e+05 2.516882e+05 2.025
23 irregular 1 26 26 50 3 0.220 slower 1 2.516895e+05 2.516932e+05 3.664
23 irregular 1 27 27 69 1 0.509 slower 0 2.516943e+05 2.516966e+05 2.233
23 irregular 1 28 28 50 1.500000e+00 0.568 slower 1 2.516978e+05 2.517004e+05 2.570
23 irregular 1 29 29 50 2.500000e+00 0.273 slower 1 2.517015e+05 2.517051e+05 3.639
23 irregular 1 30 30 69 1 0.533 slower 0 2.517071e+05 2.517092e+05 2.063
23 irregular 1 31 31 50 1 0.182 slower 1 2.517104e+05 2.517124e+05 1.989
23 irregular 1 32 32 50 1.500000e+00 0.509 faster 0 2.517136e+05 2.517164e+05 2.757
23 irregular 1 33 33 71 3 0.107 faster 1 2.517176e+05 2.517219e+05 4.341
23 irregular 1 34 34 70 2 0.188 faster 1 2.517232e+05 2.517259e+05 2.708
23 irregular 1 35 35 70 2.500000e+00 0.342 faster 1 2.517273e+05 2.517308e+05 3.473
23 irregular 1 36 36 51 1 0.303 slower 1 2.517323e+05 2.517345e+05 2.296
23 irregular 1 37 37 51 2 0.595 slower 1 2.517358e+05 2.517392e+05 3.413
23 irregular 1 38 38 52 2 0.506 faster 0 2.517404e+05 2.517442e+05 3.846
23 irregular 1 39 39 69 1 0.373 slower 0 2.517458e+05 2.517481e+05 2.368
23 irregular 1 40 40 50 3 0.493 slower 1 2.517503e+05 2.517546e+05 4.246
23 irregular 1 41 41 50 1.500000e+00 0.205 slower 1 2.517559e+05 2.517586e+05 2.703
23 irregular 1 42 42 51 3 0.311 faster 0 2.517602e+05 2.517649e+05 4.707
23 irregular 1 43 43 70 2.500000e+00 0.339 faster 1 2.517663e+05 2.517697e+05 3.437
23 irregular 1 44 44 70 3 0.464 faster 1 2.517720e+05 2.517757e+05 3.690
23 irregular 1 45 45 51 2.500000e+00 0.498 faster 0 2.517773e+05 2.517809e+05 3.592
23 irregular 1 46 46 70 2.500000e+00 0.254 faster 1 2.517822e+05 2.517855e+05 3.232
23 irregular 1 47 47 70 2 0.346 faster 1 2.517869e+05 2.517900e+05 3.085
23 irregular 1 48 48 69 1 0.445 slower 0 2.517919e+05 2.517942e+05 2.315
23 irregular 1 49 49 50 2.500000e+00 0.538 faster 0 2.517958e+05 2.518001e+05 4.210
23 irregular 1 50 50 71 1.500000e+00 0.464 faster 1 2.518017e+05 2.518039e+05 2.196
23 irregular 1 51 51 71 3 0.515 faster 1 2.518056e+05 2.518092e+05 3.674
23 irregular 1 52 52 50 3 0.108 faster 0 2.518104e+05 2.518143e+05 3.903
23 irregular 1 53 53 71 1.500000e+00 0.536 faster 1 2.518155e+05 2.518176e+05 2.112
23 irregular 1 54 54 71 2 0.239 faster 1 2.518187e+05 2.518213e+05 2.576
23 irregular 1 55 55 70 1 0.315 faster 1 2.518227e+05 2.518244e+05 1.695
23 irregular 1 56 56 70 3 0.139 faster 1 2.518252e+05 2.518289e+05 3.679
23 irregular 1 57 57 51 1.500000e+00 0.317 faster 0 2.518303e+05 2.518325e+05 2.179
23 irregular 1 58 58 50 1.500000e+00 0.479 faster 0 2.518341e+05 2.518366e+05 2.583
23 irregular 1 59 59 71 2.500000e+00 0.148 faster 1 2.518380e+05 2.518411e+05 3.088
23 irregular 1 60 60 49 1.500000e+00 0.244 slower 1 2.518424e+05 2.518449e+05 2.479
23 irregular 1 61 61 50 1.500000e+00 0.267 slower 1 2.518462e+05 2.518490e+05 2.828
23 irregular 1 62 62 70 2 0.445 slower 0 2.518506e+05 2.518544e+05 3.865
23 irregular 1 63 63 71 2 0.599 faster 1 2.518557e+05 2.518586e+05 2.915
23 irregular 1 64 64 70 3 0.590 faster 1 2.518603e+05 2.518640e+05 3.747
23 irregular 1 65 65 70 3 0.136 slower 0 2.518652e+05 2.518695e+05 4.248
23 irregular 1 66 66 49 2.500000e+00 0.587 slower 1 2.518712e+05 2.518751e+05 3.872
23 irregular 1 67 67 50 1.500000e+00 0.320 slower 1 2.518765e+05 2.518792e+05 2.674
23 irregular 1 68 68 50 1 0.521 slower 1 2.518809e+05 2.518840e+05 3.079
23 irregular 1 69 69 51 1 0.319 slower 1 2.518855e+05 2.518875e+05 2.005
23 irregular 1 70 70 69 1 0.154 slower 0 2.518888e+05 2.518908e+05 1.943
23 irregular 1 71 71 70 2.500000e+00 0.566 slower 0 2.518925e+05 2.518965e+05 3.960
23 irregular 1 72 72 49 2.500000e+00 0.456 slower 1 2.518980e+05 2.519015e+05 3.485
23 irregular 1 73 73 50 2 0.550 slower 1 2.519032e+05 2.519067e+05 3.465
23 irregular 1 74 74 70 2.500000e+00 0.207 slower 0 2.519076e+05 2.519113e+05 3.725
23 irregular 1 75 75 71 3 0.103 slower 0 2.519127e+05 2.519167e+05 4.006
23 irregular 1 76 76 48 3 0.539 slower 1 2.519183e+05 2.519220e+05 3.741
23 irregular 1 77 77 71 1 0.288 faster 1 2.519241e+05 2.519259e+05 1.805
23 irregular 1 78 78 49 1.500000e+00 0.367 faster 0 2.519274e+05 2.519298e+05 2.411
23 irregular 1 79 79 72 2 0.452 slower 0 2.519313e+05 2.519344e+05 3.120
23 irregular 1 80 80 47 2 0.276 slower 1 2.519358e+05 2.519385e+05 2.684
23 irregular 1 81 81 72 2.500000e+00 0.462 faster 1 2.519401e+05 2.519438e+05 3.704
23 irregular 1 82 82 48 1 0.375 faster 0 2.519449e+05 2.519473e+05 2.338
23 irregular 1 83 83 73 1.500000e+00 0.516 faster 1 2.519490e+05 2.519511e+05 2.122
23 irregular 1 84 84 48 2 0.481 slower 1 2.519528e+05 2.519557e+05 2.911
23 irregular 1 85 85 72 2.500000e+00 0.510 slower 0 2.519573e+05 2.519612e+05 3.844
23 irregular 1 86 86 47 1 0.148 faster 0 2.519627e+05 2.519657e+05 2.949
23 irregular 1 87 87 46 2.500000e+00 0.339 slower 1 2.519672e+05 2.519707e+05 3.536
23 irregular 1 88 88 73 1 0.151 slower 0 2.519719e+05 2.519745e+05 2.512
23 irregular 1 89 89 74 2.500000e+00 0.208 faster 1 2.519759e+05 2.519793e+05 3.367
23 irregular 1 90 90 46 1 0.574 slower 1 2.519810e+05 2.519828e+05 1.787
23 irregular 1 91 91 47 1.500000e+00 0.505 slower 1 2.519844e+05 2.519874e+05 3.002
23 irregular 1 92 92 73 2 0.550 faster 1 2.519893e+05 2.519919e+05 2.566
23 irregular 1 93 93 48 3 0.473 slower 1 2.519936e+05 2.519977e+05 4.080
23 irregular 1 94 94 72 3 0.135 faster 1 2.519989e+05 2.520026e+05 3.725
23 irregular 1 95 95 49 1 0.275 faster 0 2.520042e+05 2.520059e+05 1.746
23 irregular 1 96 96 48 2 0.213 slower 1 2.520072e+05 2.520099e+05 2.725
23 irregular 1 97 97 48 2 0.341 slower 1 2.520115e+05 2.520143e+05 2.745
23 irregular 1 98 98 49 3 0.196 faster 0 2.520157e+05 2.520201e+05 4.408
23 irregular 1 99 99 72 1.500000e+00 0.408 slower 0 2.520217e+05 2.520245e+05 2.760
23 irregular 1 100 100 47 2.500000e+00 0.290 slower 1 2.520255e+05 2.520287e+05 3.206
23 regular 2 1 101 73 1.500000e+00 0.218 faster 1 2.520692e+05 2.520718e+05 2.610
23 regular 2 2 102 48 1.500000e+00 0.432 slower 1 2.520733e+05 2.520757e+05 2.346
23 regular 2 3 103 72 1.500000e+00 0.145 faster 1 2.520765e+05 2.520790e+05 2.573
23 regular 2 4 104 71 1.500000e+00 0.233 faster 1 2.520799e+05 2.520821e+05 2.176
23 regular 2 5 105 49 1.500000e+00 0.398 faster 0 2.520835e+05 2.520857e+05 2.207
23 regular 2 6 106 48 1.500000e+00 0.563 slower 1 2.520875e+05 2.520899e+05 2.445
23 regular 2 7 107 49 1.500000e+00 0.335 faster 0 2.520914e+05 2.520934e+05 2.055
23 regular 2 8 108 72 1.500000e+00 0.481 faster 1 2.520946e+05 2.520966e+05 2.008
23 regular 2 9 109 48 1.500000e+00 0.115 faster 0 2.520978e+05 2.520997e+05 1.879
23 regular 2 10 110 47 1.500000e+00 0.575 faster 0 2.521014e+05 2.521034e+05 2.032
23 regular 2 11 111 46 1.500000e+00 0.166 faster 0 2.521046e+05 2.521065e+05 1.897
23 regular 2 12 112 45 1.500000e+00 0.170 slower 1 2.521073e+05 2.521098e+05 2.509
23 regular 2 13 113 74 1.500000e+00 0.199 faster 1 2.521112e+05 2.521131e+05 1.936
23 regular 2 14 114 46 1.500000e+00 0.301 faster 0 2.521140e+05 2.521164e+05 2.340
23 regular 2 15 115 75 1.500000e+00 0.105 faster 1 2.521176e+05 2.521194e+05 1.843
23 regular 2 16 116 74 1.500000e+00 0.459 faster 1 2.521210e+05 2.521229e+05 1.900
23 regular 2 17 117 74 1.500000e+00 0.428 faster 1 2.521244e+05 2.521264e+05 1.992
23 regular 2 18 118 73 1.500000e+00 0.391 faster 1 2.521280e+05 2.521301e+05 2.051
23 regular 2 19 119 47 1.500000e+00 0.571 slower 1 2.521317e+05 2.521343e+05 2.604
23 regular 2 20 120 48 1.500000e+00 0.342 faster 0 2.521357e+05 2.521382e+05 2.478
23 regular 2 21 121 73 1.500000e+00 0.561 faster 1 2.521398e+05 2.521421e+05 2.316
23 regular 2 22 122 47 1.500000e+00 0.152 faster 0 2.521434e+05 2.521453e+05 1.949
23 regular 2 23 123 46 1.500000e+00 0.466 faster 0 2.521464e+05 2.521486e+05 2.208
23 regular 2 24 124 45 1.500000e+00 0.537 slower 1 2.521503e+05 2.521529e+05 2.620
23 regular 2 25 125 74 1.500000e+00 0.407 faster 1 2.521543e+05 2.521566e+05 2.229
23 regular 2 26 126 74 1.500000e+00 0.515 faster 1 2.521582e+05 2.521602e+05 1.976
23 regular 2 27 127 73 1.500000e+00 0.156 faster 1 2.521614e+05 2.521634e+05 1.999
23 regular 2 28 128 47 1.500000e+00 0.289 faster 0 2.521643e+05 2.521663e+05 2.005
23 regular 2 29 129 74 1.500000e+00 0.518 faster 1 2.521679e+05 2.521698e+05 1.956
23 regular 2 30 130 47 1.500000e+00 0.132 slower 1 2.521712e+05 2.521737e+05 2.567
23 regular 2 31 131 47 1.500000e+00 0.143 faster 0 2.521751e+05 2.521779e+05 2.853
23 regular 2 32 132 46 1.500000e+00 0.416 slower 1 2.521795e+05 2.521824e+05 2.893
23 regular 2 33 133 47 1.500000e+00 0.264 faster 0 2.521838e+05 2.521866e+05 2.813
23 regular 2 34 134 46 1.500000e+00 0.173 faster 0 2.521880e+05 2.521908e+05 2.843
23 regular 2 35 135 75 1.500000e+00 0.142 faster 1 2.521918e+05 2.521942e+05 2.366
23 regular 2 36 136 75 1.500000e+00 0.481 faster 1 2.521959e+05 2.521979e+05 1.981
23 regular 2 37 137 74 1.500000e+00 0.599 faster 1 2.521997e+05 2.522025e+05 2.762
23 regular 2 38 138 46 1.500000e+00 0.252 slower 1 2.522040e+05 2.522061e+05 2.147
23 regular 2 39 139 73 1.500000e+00 0.259 slower 0 2.522075e+05 2.522101e+05 2.648
23 regular 2 40 140 74 1.500000e+00 0.445 faster 1 2.522117e+05 2.522138e+05 2.076
23 regular 2 41 141 74 1.500000e+00 0.268 faster 1 2.522151e+05 2.522173e+05 2.143
23 regular 2 42 142 73 1.500000e+00 0.180 faster 1 2.522184e+05 2.522204e+05 1.938
23 regular 2 43 143 47 1.500000e+00 0.551 faster 0 2.522216e+05 2.522237e+05 2.121
23 regular 2 44 144 74 1.500000e+00 0.436 faster 1 2.522252e+05 2.522272e+05 1.968
23 regular 2 45 145 47 1.500000e+00 0.176 slower 1 2.522284e+05 2.522313e+05 2.820
23 regular 2 46 146 47 1.500000e+00 0.538 slower 1 2.522329e+05 2.522352e+05 2.277
23 regular 2 47 147 48 1.500000e+00 0.173 slower 1 2.522364e+05 2.522385e+05 2.070
23 regular 2 48 148 48 1.500000e+00 0.499 slower 1 2.522401e+05 2.522422e+05 2.112
23 regular 2 49 149 71 1.500000e+00 0.589 faster 1 2.522435e+05 2.522457e+05 2.224
23 regular 2 50 150 71 1.500000e+00 0.547 faster 1 2.522473e+05 2.522495e+05 2.156
23 regular 2 51 151 70 1.500000e+00 0.266 faster 1 2.522509e+05 2.522538e+05 2.939
23 regular 2 52 152 70 1.500000e+00 0.383 faster 1 2.522549e+05 2.522570e+05 2.122
23 regular 2 53 153 69 1.500000e+00 0.356 slower 0 2.522584e+05 2.522607e+05 2.322
23 regular 2 54 154 50 1.500000e+00 0.453 slower 1 2.522623e+05 2.522646e+05 2.290
23 regular 2 55 155 70 1.500000e+00 0.335 faster 1 2.522660e+05 2.522683e+05 2.340
23 regular 2 56 156 51 1.500000e+00 0.596 slower 1 2.522702e+05 2.522725e+05 2.282
23 regular 2 57 157 69 1.500000e+00 0.448 faster 1 2.522740e+05 2.522771e+05 3.048
23 regular 2 58 158 68 1.500000e+00 0.407 faster 1 2.522786e+05 2.522809e+05 2.290
23 regular 2 59 159 52 1.500000e+00 0.410 faster 0 2.522824e+05 2.522845e+05 2.122
23 regular 2 60 160 51 1.500000e+00 0.334 slower 1 2.522859e+05 2.522889e+05 3.077
23 regular 2 61 161 68 1.500000e+00 0.387 faster 1 2.522905e+05 2.522929e+05 2.442
23 regular 2 62 162 52 1.500000e+00 0.117 faster 0 2.522942e+05 2.522965e+05 2.347
23 regular 2 63 163 51 1.500000e+00 0.577 faster 0 2.522982e+05 2.523010e+05 2.815
23 regular 2 64 164 50 1.500000e+00 0.302 slower 1 2.523021e+05 2.523054e+05 3.283
23 regular 2 65 165 69 1.500000e+00 0.179 faster 1 2.523067e+05 2.523088e+05 2.052
23 regular 2 66 166 69 1.500000e+00 0.122 faster 1 2.523101e+05 2.523121e+05 2.074
23 regular 2 67 167 68 1.500000e+00 0.437 faster 1 2.523136e+05 2.523156e+05 1.911
23 regular 2 68 168 68 1.500000e+00 0.517 faster 1 2.523171e+05 2.523191e+05 1.935
23 regular 2 69 169 53 1.500000e+00 0.404 faster 0 2.523206e+05 2.523237e+05 3.053
23 regular 2 70 170 68 1.500000e+00 0.223 faster 1 2.523252e+05 2.523273e+05 2.168
23 regular 2 71 171 52 1.500000e+00 0.271 faster 0 2.523287e+05 2.523315e+05 2.818
23 regular 2 72 172 51 1.500000e+00 0.205 slower 1 2.523328e+05 2.523353e+05 2.547
23 regular 2 73 173 68 1.500000e+00 0.164 faster 1 2.523367e+05 2.523393e+05 2.574
23 regular 2 74 174 68 1.500000e+00 0.240 faster 1 2.523407e+05 2.523440e+05 3.326
23 regular 2 75 175 53 1.500000e+00 0.154 faster 0 2.523453e+05 2.523484e+05 3.073
23 regular 2 76 176 52 1.500000e+00 0.154 slower 1 2.523500e+05 2.523522e+05 2.194
23 regular 2 77 177 68 1.500000e+00 0.417 faster 1 2.523544e+05 2.523570e+05 2.616
23 regular 2 78 178 67 1.500000e+00 0.409 faster 1 2.523585e+05 2.523606e+05 2.144
23 regular 2 79 179 67 1.500000e+00 0.477 faster 1 2.523622e+05 2.523648e+05 2.584
23 regular 2 80 180 54 1.500000e+00 0.152 faster 0 2.523662e+05 2.523682e+05 1.981
23 regular 2 81 181 67 1.500000e+00 0.300 faster 1 2.523697e+05 2.523718e+05 2.063
23 regular 2 82 182 53 1.500000e+00 0.137 slower 1 2.523731e+05 2.523755e+05 2.385
23 regular 2 83 183 54 1.500000e+00 0.178 slower 1 2.523771e+05 2.523797e+05 2.598
23 regular 2 84 184 66 1.500000e+00 0.596 faster 1 2.523814e+05 2.523838e+05 2.385
23 regular 2 85 185 55 1.500000e+00 0.436 faster 0 2.523853e+05 2.523886e+05 3.306
23 regular 2 86 186 66 1.500000e+00 0.599 faster 1 2.523904e+05 2.523928e+05 2.414
23 regular 2 87 187 66 1.500000e+00 0.437 faster 1 2.523943e+05 2.523965e+05 2.140
23 regular 2 88 188 65 1.500000e+00 0.498 faster 1 2.523980e+05 2.524000e+05 1.962
23 regular 2 89 189 65 1.500000e+00 0.539 faster 1 2.524021e+05 2.524041e+05 1.991
23 regular 2 90 190 64 1.500000e+00 0.203 slower 0 2.524055e+05 2.524082e+05 2.722
23 regular 2 91 191 55 1.500000e+00 0.528 slower 1 2.524099e+05 2.524121e+05 2.252
23 regular 2 92 192 55 1.500000e+00 0.551 slower 1 2.524138e+05 2.524174e+05 3.590
23 regular 2 93 193 64 1.500000e+00 0.483 faster 1 2.524196e+05 2.524220e+05 2.402
23 regular 2 94 194 64 1.500000e+00 0.235 faster 1 2.524239e+05 2.524270e+05 3.062
23 regular 2 95 195 57 1.500000e+00 0.147 faster 0 2.524283e+05 2.524311e+05 2.808
23 regular 2 96 196 56 1.500000e+00 0.356 slower 1 2.524327e+05 2.524350e+05 2.338
23 regular 2 97 197 56 1.500000e+00 0.252 slower 1 2.524364e+05 2.524388e+05 2.400
23 regular 2 98 198 57 1.500000e+00 0.178 faster 0 2.524402e+05 2.524424e+05 2.260
23 regular 2 99 199 56 1.500000e+00 0.290 faster 0 2.524438e+05 2.524465e+05 2.713
23 regular 2 100 200 55 1.500000e+00 0.184 slower 1 2.524478e+05 2.524503e+05 2.523
23 irregular 3 1 201 65 2 0.472 faster 1 2.524982e+05 2.525016e+05 3.433
23 irregular 3 2 202 64 2.500000e+00 0.255 faster 1 2.525037e+05 2.525067e+05 3.067
23 irregular 3 3 203 64 1 0.465 slower 0 2.525083e+05 2.525104e+05 2.119
23 irregular 3 4 204 65 2.500000e+00 0.320 slower 0 2.525118e+05 2.525154e+05 3.601
23 irregular 3 5 205 66 3 0.164 slower 0 2.525170e+05 2.525210e+05 3.989
23 irregular 3 6 206 67 2 0.229 slower 0 2.525234e+05 2.525267e+05 3.228
23 irregular 3 7 207 52 2.500000e+00 0.199 slower 1 2.525283e+05 2.525320e+05 3.664
23 irregular 3 8 208 53 2.500000e+00 0.538 slower 1 2.525336e+05 2.525369e+05 3.239
23 irregular 3 9 209 53 1 0.336 faster 0 2.525392e+05 2.525412e+05 1.981
23 irregular 3 10 210 52 2.500000e+00 0.561 slower 1 2.525429e+05 2.525465e+05 3.674
23 irregular 3 11 211 53 2.500000e+00 0.169 slower 1 2.525479e+05 2.525514e+05 3.518
23 irregular 3 12 212 67 2 0.236 faster 1 2.525528e+05 2.525556e+05 2.719
23 irregular 3 13 213 54 1.500000e+00 0.398 faster 0 2.525576e+05 2.525601e+05 2.505
23 irregular 3 14 214 53 1 0.192 faster 0 2.525619e+05 2.525636e+05 1.707
23 irregular 3 15 215 68 3 0.289 faster 1 2.525651e+05 2.525688e+05 3.764
23 irregular 3 16 216 52 1.500000e+00 0.347 faster 0 2.525710e+05 2.525731e+05 2.094
23 irregular 3 17 217 51 1.500000e+00 0.359 faster 0 2.525752e+05 2.525779e+05 2.750
23 irregular 3 18 218 70 3 0.382 faster 1 2.525794e+05 2.525830e+05 3.650
23 irregular 3 19 219 69 1 0.271 faster 1 2.525844e+05 2.525861e+05 1.650
23 irregular 3 20 220 69 1.500000e+00 0.512 faster 1 2.525872e+05 2.525892e+05 1.989
23 irregular 3 21 221 68 1.500000e+00 0.166 faster 1 2.525904e+05 2.525925e+05 2.074
23 irregular 3 22 222 68 2 0.136 faster 1 2.525937e+05 2.525961e+05 2.431
23 irregular 3 23 223 53 2.500000e+00 0.180 slower 1 2.525976e+05 2.526019e+05 4.323
23 irregular 3 24 224 67 2.500000e+00 0.290 faster 1 2.526034e+05 2.526070e+05 3.542
23 irregular 3 25 225 66 1 0.297 faster 1 2.526086e+05 2.526106e+05 2.023
23 irregular 3 26 226 54 1.500000e+00 0.397 faster 0 2.526121e+05 2.526142e+05 2.057
23 irregular 3 27 227 53 1 0.332 faster 0 2.526158e+05 2.526173e+05 1.539
23 irregular 3 28 228 68 3 0.230 slower 0 2.526188e+05 2.526232e+05 4.470
23 irregular 3 29 229 51 1 0.268 slower 1 2.526249e+05 2.526276e+05 2.674
23 irregular 3 30 230 68 2 0.392 slower 0 2.526293e+05 2.526322e+05 2.935
23 irregular 3 31 231 51 1 0.517 faster 0 2.526340e+05 2.526369e+05 2.901
23 irregular 3 32 232 50 2.500000e+00 0.488 slower 1 2.526391e+05 2.526422e+05 3.132
23 irregular 3 33 233 50 3 0.129 slower 1 2.526435e+05 2.526473e+05 3.741
23 irregular 3 34 234 51 2 0.536 faster 0 2.526492e+05 2.526531e+05 3.871
23 irregular 3 35 235 50 1 0.426 slower 1 2.526547e+05 2.526570e+05 2.255
23 irregular 3 36 236 50 2 0.171 slower 1 2.526584e+05 2.526617e+05 3.291
23 irregular 3 37 237 51 1 0.302 slower 1 2.526632e+05 2.526648e+05 1.629
23 irregular 3 38 238 51 3 0.450 slower 1 2.526673e+05 2.526721e+05 4.736
23 irregular 3 39 239 68 2.500000e+00 0.284 faster 1 2.526736e+05 2.526774e+05 3.830
23 irregular 3 40 240 52 1 0.190 slower 1 2.526787e+05 2.526805e+05 1.744
23 irregular 3 41 241 67 2.500000e+00 0.466 faster 1 2.526821e+05 2.526862e+05 4.142
23 irregular 3 42 242 53 3 0.445 faster 0 2.526882e+05 2.526922e+05 3.981
23 irregular 3 43 243 68 1.500000e+00 0.398 faster 1 2.526938e+05 2.526959e+05 2.068
23 irregular 3 44 244 53 2.500000e+00 0.195 slower 1 2.526971e+05 2.527004e+05 3.302
23 irregular 3 45 245 67 1.500000e+00 0.195 faster 1 2.527024e+05 2.527044e+05 2.024
23 irregular 3 46 246 66 2.500000e+00 0.531 faster 1 2.527061e+05 2.527093e+05 3.226
23 irregular 3 47 247 66 2 0.216 faster 1 2.527107e+05 2.527133e+05 2.574
23 irregular 3 48 248 65 2.500000e+00 0.568 faster 1 2.527149e+05 2.527181e+05 3.201
23 irregular 3 49 249 55 2.500000e+00 0.362 slower 1 2.527195e+05 2.527228e+05 3.216
23 irregular 3 50 250 64 3 0.107 faster 1 2.527247e+05 2.527286e+05 3.949
23 irregular 3 51 251 56 3 0.257 slower 1 2.527299e+05 2.527339e+05 3.964
23 irregular 3 52 252 63 1.500000e+00 0.495 faster 1 2.527355e+05 2.527377e+05 2.230
23 irregular 3 53 253 63 1 0.336 faster 1 2.527393e+05 2.527412e+05 1.997
23 irregular 3 54 254 62 2 0.424 faster 1 2.527429e+05 2.527460e+05 3.149
23 irregular 3 55 255 58 2 0.166 faster 0 2.527474e+05 2.527500e+05 2.615
23 irregular 3 56 256 57 1.500000e+00 0.221 faster 0 2.527526e+05 2.527548e+05 2.180
23 irregular 3 57 257 56 3 0.453 faster 0 2.527565e+05 2.527603e+05 3.804
23 irregular 3 58 258 55 3 0.379 slower 1 2.527619e+05 2.527655e+05 3.630
23 irregular 3 59 259 64 3 0.319 slower 0 2.527670e+05 2.527720e+05 5.041
23 irregular 3 60 260 65 3 0.459 faster 1 2.527737e+05 2.527775e+05 3.753
23 irregular 3 61 261 55 2.500000e+00 0.158 faster 0 2.527790e+05 2.527825e+05 3.516
23 irregular 3 62 262 54 1.500000e+00 0.150 slower 1 2.527838e+05 2.527874e+05 3.597
23 irregular 3 63 263 65 1.500000e+00 0.287 slower 0 2.527888e+05 2.527918e+05 2.998
23 irregular 3 64 264 66 2.500000e+00 0.229 faster 1 2.527932e+05 2.527973e+05 4.111
23 irregular 3 65 265 54 2 0.208 slower 1 2.527983e+05 2.528014e+05 3.169
23 irregular 3 66 266 55 3 0.271 faster 0 2.528035e+05 2.528085e+05 5.055
23 irregular 3 67 267 66 2.500000e+00 0.414 faster 1 2.528103e+05 2.528137e+05 3.440
23 irregular 3 68 268 54 3 0.286 faster 0 2.528154e+05 2.528192e+05 3.786
23 irregular 3 69 269 67 1 0.216 faster 1 2.528206e+05 2.528231e+05 2.505
23 irregular 3 70 270 66 2 0.531 faster 1 2.528248e+05 2.528275e+05 2.702
23 irregular 3 71 271 66 3 0.167 faster 1 2.528289e+05 2.528326e+05 3.662
23 irregular 3 72 272 65 3 0.577 slower 0 2.528347e+05 2.528390e+05 4.277
23 irregular 3 73 273 66 3 0.365 slower 0 2.528405e+05 2.528446e+05 4.014
23 irregular 3 74 274 53 2 0.461 slower 1 2.528464e+05 2.528495e+05 3.163
23 irregular 3 75 275 67 1 0.383 faster 1 2.528512e+05 2.528534e+05 2.180
23 irregular 3 76 276 54 2.500000e+00 0.275 faster 0 2.528549e+05 2.528580e+05 3.131
23 irregular 3 77 277 67 1.500000e+00 0.167 faster 1 2.528601e+05 2.528635e+05 3.411
23 irregular 3 78 278 53 2 0.520 faster 0 2.528652e+05 2.528683e+05 3.178
23 irregular 3 79 279 52 1 0.179 slower 1 2.528702e+05 2.528723e+05 2.114
23 irregular 3 80 280 67 2.500000e+00 0.176 slower 0 2.528748e+05 2.528792e+05 4.347
23 irregular 3 81 281 68 2 0.166 faster 1 2.528813e+05 2.528841e+05 2.869
23 irregular 3 82 282 52 1.500000e+00 0.278 slower 1 2.528857e+05 2.528881e+05 2.418
23 irregular 3 83 283 53 3 0.381 slower 1 2.528900e+05 2.528944e+05 4.395
23 irregular 3 84 284 53 1 0.537 slower 1 2.528963e+05 2.528984e+05 2.127
23 irregular 3 85 285 54 2 0.307 slower 1 2.529000e+05 2.529031e+05 3.091
23 irregular 3 86 286 66 1 0.429 slower 0 2.529043e+05 2.529065e+05 2.233
23 irregular 3 87 287 53 1.500000e+00 0.139 slower 1 2.529079e+05 2.529104e+05 2.501
23 irregular 3 88 288 54 3 0.590 slower 1 2.529122e+05 2.529163e+05 4.079
23 irregular 3 89 289 54 1.500000e+00 0.387 slower 1 2.529178e+05 2.529202e+05 2.329
23 irregular 3 90 290 65 1 0.245 faster 1 2.529216e+05 2.529237e+05 2.139
23 irregular 3 91 291 55 1.500000e+00 0.268 faster 0 2.529246e+05 2.529274e+05 2.765
23 irregular 3 92 292 66 1.500000e+00 0.530 faster 1 2.529287e+05 2.529311e+05 2.345
23 irregular 3 93 293 55 2 0.287 faster 0 2.529322e+05 2.529351e+05 2.872
23 irregular 3 94 294 54 2 0.204 slower 1 2.529361e+05 2.529391e+05 2.991
23 irregular 3 95 295 54 2 0.341 faster 0 2.529407e+05 2.529435e+05 2.770
23 irregular 3 96 296 67 1 0.552 slower 0 2.529451e+05 2.529473e+05 2.152
23 irregular 3 97 297 68 1.500000e+00 0.190 slower 0 2.529488e+05 2.529511e+05 2.327
23 irregular 3 98 298 69 1 0.405 faster 1 2.529527e+05 2.529545e+05 1.848
23 irregular 3 99 299 68 1.500000e+00 0.415 faster 1 2.529562e+05 2.529582e+05 1.964
23 irregular 3 100 300 68 2 0.458 faster 1 2.529598e+05 2.529623e+05 2.469
23 regular 4 1 301 53 3 0.368 faster 0 2.531398e+05 2.531441e+05 4.324
23 regular 4 2 302 52 3 0.267 faster 0 2.531455e+05 2.531491e+05 3.569
23 regular 4 3 303 69 3 0.370 faster 1 2.531507e+05 2.531543e+05 3.551
23 regular 4 4 304 69 3 0.551 faster 1 2.531560e+05 2.531595e+05 3.496
23 regular 4 5 305 52 3 0.456 slower 1 2.531614e+05 2.531663e+05 4.927
23 regular 4 6 306 68 3 0.553 faster 1 2.531681e+05 2.531716e+05 3.500
23 regular 4 7 307 53 3 0.348 slower 1 2.531731e+05 2.531769e+05 3.862
23 regular 4 8 308 53 3 0.597 faster 0 2.531787e+05 2.531827e+05 4.041
23 regular 4 9 309 52 3 0.397 faster 0 2.531848e+05 2.531888e+05 3.983
23 regular 4 10 310 69 3 0.316 faster 1 2.531903e+05 2.531940e+05 3.653
23 regular 4 11 311 68 3 0.211 faster 1 2.531952e+05 2.531987e+05 3.499
23 regular 4 12 312 68 3 0.259 faster 1 2.532001e+05 2.532035e+05 3.425
23 regular 4 13 313 67 3 0.576 faster 1 2.532060e+05 2.532100e+05 3.969
23 regular 4 14 314 67 3 0.165 faster 1 2.532114e+05 2.532153e+05 3.937
23 regular 4 15 315 66 3 0.175 faster 1 2.532166e+05 2.532202e+05 3.673
23 regular 4 16 316 54 3 0.146 faster 0 2.532214e+05 2.532251e+05 3.698
23 regular 4 17 317 53 3 0.237 slower 1 2.532263e+05 2.532301e+05 3.773
23 regular 4 18 318 66 3 0.454 slower 0 2.532317e+05 2.532356e+05 3.923
23 regular 4 19 319 67 3 0.454 faster 1 2.532372e+05 2.532408e+05 3.606
23 regular 4 20 320 53 3 0.188 slower 1 2.532422e+05 2.532464e+05 4.257
23 regular 4 21 321 54 3 0.526 slower 1 2.532487e+05 2.532525e+05 3.783
23 regular 4 22 322 66 3 0.276 faster 1 2.532541e+05 2.532578e+05 3.697
23 regular 4 23 323 55 3 0.193 faster 0 2.532589e+05 2.532631e+05 4.157
23 regular 4 24 324 54 3 0.287 faster 0 2.532646e+05 2.532683e+05 3.667
23 regular 4 25 325 53 3 0.157 slower 1 2.532700e+05 2.532741e+05 4.083
23 regular 4 26 326 67 3 0.252 faster 1 2.532756e+05 2.532793e+05 3.692
23 regular 4 27 327 54 3 0.229 faster 0 2.532806e+05 2.532848e+05 4.184
23 regular 4 28 328 53 3 0.357 faster 0 2.532863e+05 2.532904e+05 4.054
23 regular 4 29 329 68 3 0.207 faster 1 2.532918e+05 2.532954e+05 3.586
23 regular 4 30 330 52 3 0.129 faster 0 2.532965e+05 2.533004e+05 3.837
23 regular 4 31 331 51 3 0.461 faster 0 2.533018e+05 2.533056e+05 3.741
23 regular 4 32 332 50 3 0.311 faster 0 2.533069e+05 2.533106e+05 3.712
23 regular 4 33 333 49 3 0.494 faster 0 2.533122e+05 2.533158e+05 3.631
23 regular 4 34 334 72 3 0.112 faster 1 2.533166e+05 2.533201e+05 3.552
23 regular 4 35 335 71 3 0.199 faster 1 2.533213e+05 2.533249e+05 3.578
23 regular 4 36 336 71 3 0.245 faster 1 2.533262e+05 2.533299e+05 3.721
23 regular 4 37 337 50 3 0.207 slower 1 2.533311e+05 2.533350e+05 3.871
23 regular 4 38 338 50 3 0.170 slower 1 2.533364e+05 2.533409e+05 4.538
23 regular 4 39 339 51 3 0.470 slower 1 2.533425e+05 2.533467e+05 4.183
23 regular 4 40 340 69 3 0.376 faster 1 2.533482e+05 2.533518e+05 3.674
23 regular 4 41 341 68 3 0.166 faster 1 2.533531e+05 2.533567e+05 3.575
23 regular 4 42 342 52 3 0.278 faster 0 2.533581e+05 2.533616e+05 3.498
23 regular 4 43 343 51 3 0.484 faster 0 2.533632e+05 2.533668e+05 3.607
23 regular 4 44 344 70 3 0.574 faster 1 2.533685e+05 2.533721e+05 3.543
23 regular 4 45 345 69 3 0.531 faster 1 2.533737e+05 2.533772e+05 3.507
23 regular 4 46 346 51 3 0.448 slower 1 2.533787e+05 2.533824e+05 3.786
23 regular 4 47 347 52 3 0.447 slower 1 2.533841e+05 2.533883e+05 4.247
23 regular 4 48 348 52 3 0.160 slower 1 2.533902e+05 2.533946e+05 4.435
23 regular 4 49 349 53 3 0.465 faster 0 2.533964e+05 2.533999e+05 3.562
23 regular 4 50 350 68 3 0.396 faster 1 2.534015e+05 2.534050e+05 3.530
23 regular 4 51 351 68 3 0.591 faster 1 2.534068e+05 2.534106e+05 3.791
23 regular 4 52 352 53 3 0.162 slower 1 2.534124e+05 2.534170e+05 4.622
23 regular 4 53 353 67 3 0.178 faster 1 2.534184e+05 2.534223e+05 3.853
23 regular 4 54 354 54 3 0.247 slower 1 2.534237e+05 2.534283e+05 4.588
23 regular 4 55 355 66 3 0.234 faster 1 2.534301e+05 2.534338e+05 3.738
23 regular 4 56 356 65 3 0.329 faster 1 2.534355e+05 2.534392e+05 3.709
23 regular 4 57 357 55 3 0.194 slower 1 2.534407e+05 2.534445e+05 3.806
23 regular 4 58 358 56 3 0.202 faster 0 2.534459e+05 2.534495e+05 3.623
23 regular 4 59 359 65 3 0.487 faster 1 2.534516e+05 2.534552e+05 3.515
23 regular 4 60 360 65 3 0.568 faster 1 2.534568e+05 2.534604e+05 3.598
23 regular 4 61 361 56 3 0.484 faster 0 2.534620e+05 2.534655e+05 3.508
23 regular 4 62 362 55 3 0.275 faster 0 2.534676e+05 2.534712e+05 3.598
23 regular 4 63 363 66 3 0.559 faster 1 2.534730e+05 2.534765e+05 3.547
23 regular 4 64 364 54 3 0.439 faster 0 2.534782e+05 2.534829e+05 4.699
23 regular 4 65 365 67 3 0.468 faster 1 2.534851e+05 2.534887e+05 3.585
23 regular 4 66 366 66 3 0.377 faster 1 2.534909e+05 2.534952e+05 4.269
23 regular 4 67 367 54 3 0.558 faster 0 2.534970e+05 2.535019e+05 4.941
23 regular 4 68 368 67 3 0.519 faster 1 2.535049e+05 2.535093e+05 4.420
23 regular 4 69 369 66 3 0.582 faster 1 2.535110e+05 2.535150e+05 4.000
23 regular 4 70 370 66 3 0.352 faster 1 2.535164e+05 2.535204e+05 3.960
23 regular 4 71 371 65 3 0.383 faster 1 2.535218e+05 2.535257e+05 3.929
23 regular 4 72 372 65 3 0.140 faster 1 2.535268e+05 2.535304e+05 3.566
23 regular 4 73 373 56 3 0.325 faster 0 2.535317e+05 2.535358e+05 4.071
23 regular 4 74 374 65 3 0.150 faster 1 2.535370e+05 2.535405e+05 3.515
23 regular 4 75 375 65 3 0.566 faster 1 2.535420e+05 2.535469e+05 4.929
23 regular 4 76 376 64 3 0.528 faster 1 2.535482e+05 2.535529e+05 4.753
23 regular 4 77 377 56 3 0.119 slower 1 2.535542e+05 2.535585e+05 4.286
23 regular 4 78 378 57 3 0.418 slower 1 2.535600e+05 2.535636e+05 3.560
23 regular 4 79 379 63 3 0.259 slower 0 2.535651e+05 2.535689e+05 3.860
23 regular 4 80 380 64 3 0.339 slower 0 2.535709e+05 2.535749e+05 4.029
23 regular 4 81 381 55 3 0.339 faster 0 2.535765e+05 2.535812e+05 4.667
23 regular 4 82 382 54 3 0.575 faster 0 2.535826e+05 2.535870e+05 4.467
23 regular 4 83 383 53 3 0.277 faster 0 2.535884e+05 2.535922e+05 3.762
23 regular 4 84 384 52 3 0.397 faster 0 2.535936e+05 2.535973e+05 3.663
23 regular 4 85 385 51 3 0.207 slower 1 2.535985e+05 2.536025e+05 4.040
23 regular 4 86 386 68 3 0.513 faster 1 2.536042e+05 2.536078e+05 3.636
23 regular 4 87 387 52 3 0.122 slower 1 2.536090e+05 2.536127e+05 3.751
23 regular 4 88 388 67 3 0.587 faster 1 2.536148e+05 2.536185e+05 3.735
23 regular 4 89 389 53 3 0.578 slower 1 2.536207e+05 2.536248e+05 4.068
23 regular 4 90 390 66 3 0.415 faster 1 2.536263e+05 2.536300e+05 3.688
23 regular 4 91 391 54 3 0.462 faster 0 2.536316e+05 2.536354e+05 3.804
23 regular 4 92 392 53 3 0.575 faster 0 2.536366e+05 2.536403e+05 3.605
23 regular 4 93 393 52 3 0.116 faster 0 2.536420e+05 2.536457e+05 3.680
23 regular 4 94 394 69 3 0.194 faster 1 2.536478e+05 2.536514e+05 3.646
23 regular 4 95 395 68 3 0.384 faster 1 2.536529e+05 2.536564e+05 3.556
23 regular 4 96 396 68 3 0.306 faster 1 2.536579e+05 2.536614e+05 3.460
23 regular 4 97 397 53 3 0.533 faster 0 2.536631e+05 2.536667e+05 3.573
23 regular 4 98 398 68 3 0.248 faster 1 2.536686e+05 2.536721e+05 3.481
23 regular 4 99 399 68 3 0.377 slower 0 2.536736e+05 2.536776e+05 4.032
23 regular 4 100 400 69 3 0.192 faster 1 2.536789e+05 2.536825e+05 3.598
23 irregular 5 1 401 52 2.500000e+00 0.330 slower 1 2.537036e+05 2.537069e+05 3.345
23 irregular 5 2 402 52 2 0.147 faster 0 2.537092e+05 2.537131e+05 3.894
23 irregular 5 3 403 51 2.500000e+00 0.136 slower 1 2.537143e+05 2.537180e+05 3.704
23 irregular 5 4 404 52 1 0.347 slower 1 2.537196e+05 2.537222e+05 2.595
23 irregular 5 5 405 68 3 0.149 faster 1 2.537236e+05 2.537275e+05 3.942
23 irregular 5 6 406 67 1.500000e+00 0.165 faster 1 2.537288e+05 2.537309e+05 2.177
23 irregular 5 7 407 53 1.500000e+00 0.486 faster 0 2.537325e+05 2.537353e+05 2.827
23 irregular 5 8 408 68 2.500000e+00 0.590 faster 1 2.537370e+05 2.537401e+05 3.066
23 irregular 5 9 409 53 2.500000e+00 0.302 slower 1 2.537420e+05 2.537457e+05 3.668
23 irregular 5 10 410 67 2 0.308 slower 0 2.537479e+05 2.537507e+05 2.793
23 irregular 5 11 411 68 2.500000e+00 0.448 slower 0 2.537526e+05 2.537561e+05 3.491
23 irregular 5 12 412 69 1 0.244 slower 0 2.537575e+05 2.537598e+05 2.341
23 irregular 5 13 413 50 1.500000e+00 0.375 slower 1 2.537614e+05 2.537641e+05 2.752
23 irregular 5 14 414 51 3 0.370 faster 0 2.537656e+05 2.537698e+05 4.181
23 irregular 5 15 415 70 2 0.123 slower 0 2.537713e+05 2.537745e+05 3.250
23 irregular 5 16 416 49 1 0.363 faster 0 2.537767e+05 2.537795e+05 2.787
23 irregular 5 17 417 48 2 0.407 slower 1 2.537811e+05 2.537848e+05 3.746
23 irregular 5 18 418 48 2.500000e+00 0.547 slower 1 2.537865e+05 2.537906e+05 4.058
23 irregular 5 19 419 71 3 0.351 faster 1 2.537935e+05 2.537973e+05 3.876
23 irregular 5 20 420 49 2.500000e+00 0.233 slower 1 2.537987e+05 2.538021e+05 3.409
23 irregular 5 21 421 70 3 0.237 slower 0 2.538036e+05 2.538082e+05 4.609
23 irregular 5 22 422 71 2.500000e+00 0.231 faster 1 2.538096e+05 2.538127e+05 3.082
23 irregular 5 23 423 49 3 0.587 slower 1 2.538146e+05 2.538187e+05 4.074
23 irregular 5 24 424 50 2 0.512 slower 1 2.538204e+05 2.538235e+05 3.111
23 irregular 5 25 425 70 2 0.246 faster 1 2.538250e+05 2.538282e+05 3.221
23 irregular 5 26 426 69 1.500000e+00 0.361 slower 0 2.538299e+05 2.538324e+05 2.502
23 irregular 5 27 427 50 2.500000e+00 0.273 slower 1 2.538338e+05 2.538376e+05 3.732
23 irregular 5 28 428 50 3 0.354 slower 1 2.538402e+05 2.538447e+05 4.487
23 irregular 5 29 429 51 1 0.439 slower 1 2.538467e+05 2.538497e+05 3.000
23 irregular 5 30 430 51 1.500000e+00 0.101 slower 1 2.538510e+05 2.538538e+05 2.755
23 irregular 5 31 431 52 2 0.161 slower 1 2.538551e+05 2.538585e+05 3.380
23 irregular 5 32 432 68 2.500000e+00 0.264 slower 0 2.538604e+05 2.538641e+05 3.699
23 irregular 5 33 433 51 1 0.342 slower 1 2.538655e+05 2.538678e+05 2.295
23 irregular 5 34 434 68 1.500000e+00 0.199 faster 1 2.538691e+05 2.538723e+05 3.181
23 irregular 5 35 435 68 3 0.426 slower 0 2.538740e+05 2.538791e+05 5.087
23 irregular 5 36 436 51 2 0.518 slower 1 2.538809e+05 2.538846e+05 3.669
23 irregular 5 37 437 68 2 0.129 faster 1 2.538858e+05 2.538886e+05 2.810
23 irregular 5 38 438 52 3 0.471 faster 0 2.538905e+05 2.538951e+05 4.590
23 irregular 5 39 439 69 1.500000e+00 0.181 slower 0 2.538964e+05 2.538991e+05 2.680
23 irregular 5 40 440 70 1.500000e+00 0.248 slower 0 2.539006e+05 2.539046e+05 4.001
23 irregular 5 41 441 49 2 0.119 faster 0 2.539058e+05 2.539092e+05 3.371
23 irregular 5 42 442 72 3 0.559 faster 1 2.539111e+05 2.539150e+05 3.930
23 irregular 5 43 443 49 2 0.133 faster 0 2.539158e+05 2.539195e+05 3.712
23 irregular 5 44 444 48 3 0.395 faster 0 2.539210e+05 2.539248e+05 3.840
23 irregular 5 45 445 47 1 0.166 slower 1 2.539261e+05 2.539281e+05 2.016
23 irregular 5 46 446 73 1 0.402 faster 1 2.539296e+05 2.539323e+05 2.719
23 irregular 5 47 447 48 1.500000e+00 0.235 slower 1 2.539337e+05 2.539360e+05 2.306
23 irregular 5 48 448 72 1.500000e+00 0.308 slower 0 2.539375e+05 2.539402e+05 2.749
23 irregular 5 49 449 73 2.500000e+00 0.258 slower 0 2.539416e+05 2.539451e+05 3.423
23 irregular 5 50 450 46 1.500000e+00 0.419 slower 1 2.539467e+05 2.539492e+05 2.505
23 irregular 5 51 451 73 1 0.386 faster 1 2.539516e+05 2.539534e+05 1.758
23 irregular 5 52 452 73 1 0.399 faster 1 2.539550e+05 2.539567e+05 1.746
23 irregular 5 53 453 48 1.500000e+00 0.120 faster 0 2.539581e+05 2.539604e+05 2.312
23 irregular 5 54 454 73 1 0.268 faster 1 2.539618e+05 2.539637e+05 1.895
23 irregular 5 55 455 73 2 0.197 faster 1 2.539651e+05 2.539676e+05 2.523
23 irregular 5 56 456 48 2.500000e+00 0.308 slower 1 2.539690e+05 2.539721e+05 3.114
23 irregular 5 57 457 72 3 0.390 faster 1 2.539745e+05 2.539789e+05 4.450
23 irregular 5 58 458 71 1 0.324 slower 0 2.539810e+05 2.539831e+05 2.123
23 irregular 5 59 459 72 2.500000e+00 0.344 faster 1 2.539847e+05 2.539882e+05 3.487
23 irregular 5 60 460 48 1.500000e+00 0.590 slower 1 2.539901e+05 2.539926e+05 2.572
23 irregular 5 61 461 71 2 0.540 faster 1 2.539943e+05 2.539971e+05 2.792
23 irregular 5 62 462 49 2.500000e+00 0.172 slower 1 2.539991e+05 2.540023e+05 3.156
23 irregular 5 63 463 70 1.500000e+00 0.252 faster 1 2.540038e+05 2.540067e+05 2.842
23 irregular 5 64 464 50 1 0.559 slower 1 2.540085e+05 2.540103e+05 1.800
23 irregular 5 65 465 51 2 0.159 faster 0 2.540116e+05 2.540152e+05 3.636
23 irregular 5 66 466 50 3 0.142 faster 0 2.540166e+05 2.540213e+05 4.725
23 irregular 5 67 467 71 2 0.101 faster 1 2.540226e+05 2.540253e+05 2.673
23 irregular 5 68 468 49 2 0.367 faster 0 2.540268e+05 2.540302e+05 3.362
23 irregular 5 69 469 48 1.500000e+00 0.384 faster 0 2.540318e+05 2.540349e+05 3.104
23 irregular 5 70 470 47 1 0.200 slower 1 2.540362e+05 2.540383e+05 2.008
23 irregular 5 71 471 72 3 0.499 faster 1 2.540400e+05 2.540438e+05 3.827
23 irregular 5 72 472 72 1.500000e+00 0.475 slower 0 2.540454e+05 2.540483e+05 2.935
23 irregular 5 73 473 73 1 0.263 faster 1 2.540497e+05 2.540515e+05 1.709
23 irregular 5 74 474 72 1.500000e+00 0.386 faster 1 2.540531e+05 2.540552e+05 2.112
23 irregular 5 75 475 48 1 0.439 faster 0 2.540570e+05 2.540588e+05 1.795
23 irregular 5 76 476 47 3 0.148 faster 0 2.540602e+05 2.540642e+05 4.019
23 irregular 5 77 477 74 2.500000e+00 0.509 faster 1 2.540671e+05 2.540703e+05 3.140
23 irregular 5 78 478 73 3 0.260 faster 1 2.540718e+05 2.540757e+05 3.962
23 irregular 5 79 479 47 2.500000e+00 0.580 slower 1 2.540777e+05 2.540809e+05 3.208
23 irregular 5 80 480 48 1.500000e+00 0.577 slower 1 2.540829e+05 2.540851e+05 2.201
23 irregular 5 81 481 72 3 0.194 slower 0 2.540865e+05 2.540915e+05 4.964
23 irregular 5 82 482 73 1.500000e+00 0.463 faster 1 2.540931e+05 2.540951e+05 2.025
23 irregular 5 83 483 72 2 0.269 faster 1 2.540965e+05 2.540989e+05 2.483
23 irregular 5 84 484 72 2.500000e+00 0.320 faster 1 2.541004e+05 2.541033e+05 2.948
23 irregular 5 85 485 49 2.500000e+00 0.376 faster 0 2.541053e+05 2.541082e+05 2.955
23 irregular 5 86 486 72 1 0.388 faster 1 2.541101e+05 2.541117e+05 1.591
23 irregular 5 87 487 72 2 0.597 faster 1 2.541133e+05 2.541158e+05 2.448
23 irregular 5 88 488 49 2 0.566 faster 0 2.541174e+05 2.541202e+05 2.765
23 irregular 5 89 489 48 3 0.115 slower 1 2.541218e+05 2.541252e+05 3.413
23 irregular 5 90 490 72 1 0.175 slower 0 2.541266e+05 2.541284e+05 1.743
23 irregular 5 91 491 73 2.500000e+00 0.316 faster 1 2.541298e+05 2.541332e+05 3.359
23 irregular 5 92 492 72 3 0.211 faster 1 2.541353e+05 2.541389e+05 3.599
23 irregular 5 93 493 48 1 0.474 slower 1 2.541418e+05 2.541436e+05 1.846
23 irregular 5 94 494 49 1.500000e+00 0.555 slower 1 2.541454e+05 2.541479e+05 2.524
23 irregular 5 95 495 49 1 0.429 slower 1 2.541496e+05 2.541517e+05 2.138
23 irregular 5 96 496 70 1 0.513 slower 0 2.541535e+05 2.541553e+05 1.772
23 irregular 5 97 497 49 3 0.408 slower 1 2.541575e+05 2.541613e+05 3.762
23 irregular 5 98 498 49 3 0.281 slower 1 2.541629e+05 2.541665e+05 3.601
23 irregular 5 99 499 70 2.500000e+00 0.488 faster 1 2.541682e+05 2.541719e+05 3.643
23 irregular 5 100 500 70 2 0.196 faster 1 2.541732e+05 2.541759e+05 2.691
23 regular 6 1 501 73 1 0.499 faster 1 6.836293e+05 6.836310e+05 1.708
23 regular 6 2 502 73 1 0.230 faster 1 6.836323e+05 6.836339e+05 1.582
23 regular 6 3 503 49 1 0.341 faster 0 6.836352e+05 6.836367e+05 1.489
23 regular 6 4 504 47 1 0.181 slower 1 6.836380e+05 6.836400e+05 1.997
23 regular 6 5 505 73 1 0.568 faster 1 6.836416e+05 6.836433e+05 1.659
23 regular 6 6 506 49 1 0.109 faster 0 6.836445e+05 6.836464e+05 1.901
23 regular 6 7 507 47 1 0.153 slower 1 6.836475e+05 6.836491e+05 1.533
23 regular 6 8 508 73 1 0.199 faster 1 6.836504e+05 6.836520e+05 1.606
23 regular 6 9 509 49 1 0.240 faster 0 6.836533e+05 6.836552e+05 1.878
23 regular 6 10 510 48 1 0.146 slower 1 6.836565e+05 6.836590e+05 2.442
23 regular 6 11 511 48 1 0.583 faster 0 6.836606e+05 6.836633e+05 2.675
23 regular 6 12 512 47 1 0.529 slower 1 6.836650e+05 6.836673e+05 2.275
23 regular 6 13 513 72 1 0.143 faster 1 6.836685e+05 6.836702e+05 1.664
23 regular 6 14 514 72 1 0.355 faster 1 6.836716e+05 6.836734e+05 1.820
23 regular 6 15 515 71 1 0.464 faster 1 6.836750e+05 6.836767e+05 1.717
23 regular 6 16 516 49 1 0.147 slower 1 6.836780e+05 6.836801e+05 2.120
23 regular 6 17 517 70 1 0.580 faster 1 6.836818e+05 6.836835e+05 1.738
23 regular 6 18 518 70 1 0.475 faster 1 6.836852e+05 6.836867e+05 1.521
23 regular 6 19 519 69 1 0.504 faster 1 6.836885e+05 6.836904e+05 1.885
23 regular 6 20 520 69 1 0.275 faster 1 6.836916e+05 6.836932e+05 1.585
23 regular 6 21 521 52 1 0.323 slower 1 6.836946e+05 6.836970e+05 2.384
23 regular 6 22 522 52 1 0.271 slower 1 6.836984e+05 6.837011e+05 2.672
23 regular 6 23 523 53 1 0.426 slower 1 6.837026e+05 6.837045e+05 1.867
23 regular 6 24 524 53 1 0.522 faster 0 6.837062e+05 6.837088e+05 2.620
23 regular 6 25 525 52 1 0.377 slower 1 6.837103e+05 6.837121e+05 1.783
23 regular 6 26 526 67 1 0.274 slower 0 6.837134e+05 6.837156e+05 2.219
23 regular 6 27 527 68 1 0.251 faster 1 6.837170e+05 6.837187e+05 1.711
23 regular 6 28 528 68 1 0.400 faster 1 6.837202e+05 6.837224e+05 2.229
23 regular 6 29 529 67 1 0.339 faster 1 6.837238e+05 6.837255e+05 1.707
23 regular 6 30 530 67 1 0.511 faster 1 6.837271e+05 6.837286e+05 1.435
23 regular 6 31 531 66 1 0.581 faster 1 6.837302e+05 6.837317e+05 1.440
23 regular 6 32 532 54 1 0.524 faster 0 6.837332e+05 6.837353e+05 2.114
23 regular 6 33 533 67 1 0.168 faster 1 6.837368e+05 6.837383e+05 1.477
23 regular 6 34 534 66 1 0.146 faster 1 6.837394e+05 6.837408e+05 1.404
23 regular 6 35 535 54 1 0.434 faster 0 6.837423e+05 6.837437e+05 1.432
23 regular 6 36 536 53 1 0.267 faster 0 6.837450e+05 6.837464e+05 1.405
23 regular 6 37 537 52 1 0.217 faster 0 6.837481e+05 6.837495e+05 1.419
23 regular 6 38 538 69 1 0.198 faster 1 6.837507e+05 6.837521e+05 1.350
23 regular 6 39 539 68 1 0.575 faster 1 6.837537e+05 6.837551e+05 1.428
23 regular 6 40 540 68 1 0.207 faster 1 6.837564e+05 6.837577e+05 1.359
23 regular 6 41 541 53 1 0.106 faster 0 6.837589e+05 6.837603e+05 1.374
23 regular 6 42 542 68 1 0.146 faster 1 6.837616e+05 6.837629e+05 1.360
23 regular 6 43 543 52 1 0.584 faster 0 6.837647e+05 6.837660e+05 1.356
23 regular 6 44 544 69 1 0.316 faster 1 6.837677e+05 6.837705e+05 2.754
23 regular 6 45 545 52 1 0.391 slower 1 6.837720e+05 6.837735e+05 1.576
23 regular 6 46 546 52 1 0.119 slower 1 6.837748e+05 6.837764e+05 1.632
23 regular 6 47 547 67 1 0.596 slower 0 6.837781e+05 6.837797e+05 1.537
23 regular 6 48 548 52 1 0.441 slower 1 6.837812e+05 6.837827e+05 1.519
23 regular 6 49 549 68 1 0.161 slower 0 6.837840e+05 6.837855e+05 1.559
23 regular 6 50 550 69 1 0.515 slower 0 6.837872e+05 6.837897e+05 2.554
23 regular 6 51 551 70 1 0.300 faster 1 6.837912e+05 6.837929e+05 1.742
23 regular 6 52 552 69 1 0.595 faster 1 6.837946e+05 6.837960e+05 1.434
23 regular 6 53 553 51 1 0.566 slower 1 6.837977e+05 6.837996e+05 1.887
23 regular 6 54 554 68 1 0.344 slower 0 6.838012e+05 6.838032e+05 1.990
23 regular 6 55 555 51 1 0.585 slower 1 6.838049e+05 6.838065e+05 1.625
23 regular 6 56 556 69 1 0.267 slower 0 6.838079e+05 6.838100e+05 2.058
23 regular 6 57 557 50 1 0.241 slower 1 6.838114e+05 6.838130e+05 1.632
23 regular 6 58 558 51 1 0.505 slower 1 6.838146e+05 6.838163e+05 1.679
23 regular 6 59 559 69 1 0.219 slower 0 6.838177e+05 6.838197e+05 2.043
23 regular 6 60 560 50 1 0.297 slower 1 6.838213e+05 6.838228e+05 1.522
23 regular 6 61 561 51 1 0.139 slower 1 6.838240e+05 6.838256e+05 1.543
23 regular 6 62 562 69 1 0.186 faster 1 6.838268e+05 6.838287e+05 1.888
23 regular 6 63 563 68 1 0.118 faster 1 6.838299e+05 6.838313e+05 1.453
23 regular 6 64 564 68 1 0.326 faster 1 6.838328e+05 6.838342e+05 1.391
23 regular 6 65 565 67 1 0.336 faster 1 6.838356e+05 6.838371e+05 1.511
23 regular 6 66 566 67 1 0.124 faster 1 6.838383e+05 6.838397e+05 1.415
23 regular 6 67 567 54 1 0.161 faster 0 6.838408e+05 6.838425e+05 1.667
23 regular 6 68 568 67 1 0.287 faster 1 6.838439e+05 6.838455e+05 1.599
23 regular 6 69 569 53 1 0.584 slower 1 6.838471e+05 6.838490e+05 1.877
23 regular 6 70 570 54 1 0.401 faster 0 6.838504e+05 6.838521e+05 1.674
23 regular 6 71 571 53 1 0.484 faster 0 6.838536e+05 6.838551e+05 1.480
23 regular 6 72 572 68 1 0.161 faster 1 6.838564e+05 6.838579e+05 1.523
23 regular 6 73 573 68 1 0.131 faster 1 6.838587e+05 6.838601e+05 1.419
23 regular 6 74 574 67 1 0.580 faster 1 6.838613e+05 6.838627e+05 1.411
23 regular 6 75 575 67 1 0.381 faster 1 6.838642e+05 6.838656e+05 1.398
23 regular 6 76 576 54 1 0.311 faster 0 6.838669e+05 6.838683e+05 1.386
23 regular 6 77 577 67 1 0.146 faster 1 6.838694e+05 6.838710e+05 1.527
23 regular 6 78 578 67 1 0.525 faster 1 6.838729e+05 6.838742e+05 1.386
23 regular 6 79 579 54 1 0.239 faster 0 6.838751e+05 6.838766e+05 1.512
23 regular 6 80 580 53 1 0.576 slower 1 6.838783e+05 6.838802e+05 1.840
23 regular 6 81 581 67 1 0.117 slower 0 6.838814e+05 6.838833e+05 1.897
23 regular 6 82 582 68 1 0.533 faster 1 6.838849e+05 6.838865e+05 1.549
23 regular 6 83 583 53 1 0.517 slower 1 6.838880e+05 6.838897e+05 1.699
23 regular 6 84 584 67 1 0.263 slower 0 6.838911e+05 6.838926e+05 1.533
23 regular 6 85 585 52 1 0.209 slower 1 6.838939e+05 6.838955e+05 1.573
23 regular 6 86 586 67 1 0.526 faster 1 6.838970e+05 6.838988e+05 1.859
23 regular 6 87 587 53 1 0.318 faster 0 6.839004e+05 6.839019e+05 1.502
23 regular 6 88 588 52 1 0.217 faster 0 6.839032e+05 6.839059e+05 2.736
23 regular 6 89 589 51 1 0.389 slower 1 6.839074e+05 6.839089e+05 1.577
23 regular 6 90 590 52 1 0.292 slower 1 6.839105e+05 6.839121e+05 1.617
23 regular 6 91 591 52 1 0.600 slower 1 6.839138e+05 6.839156e+05 1.868
23 regular 6 92 592 53 1 0.227 slower 1 6.839170e+05 6.839187e+05 1.718
23 regular 6 93 593 53 1 0.439 slower 1 6.839202e+05 6.839217e+05 1.514
23 regular 6 94 594 66 1 0.358 slower 0 6.839231e+05 6.839246e+05 1.522
23 regular 6 95 595 53 1 0.573 slower 1 6.839262e+05 6.839277e+05 1.480
23 regular 6 96 596 67 1 0.202 slower 0 6.839290e+05 6.839306e+05 1.643
23 regular 6 97 597 52 1 0.450 slower 1 6.839321e+05 6.839340e+05 1.886
23 regular 6 98 598 53 1 0.326 faster 0 6.839354e+05 6.839378e+05 2.320
23 regular 6 99 599 52 1 0.368 faster 0 6.839394e+05 6.839414e+05 2.021
23 regular 6 100 600 51 1 0.258 slower 1 6.839428e+05 6.839454e+05 2.606
23 irregular 7 1 601 51 2.500000e+00 0.204 faster 0 6.839599e+05 6.839630e+05 3.140
23 irregular 7 2 602 70 1.500000e+00 0.209 faster 1 6.839643e+05 6.839663e+05 1.956
23 irregular 7 3 603 51 1.500000e+00 0.471 slower 1 6.839678e+05 6.839705e+05 2.717
23 irregular 7 4 604 69 2 0.150 faster 1 6.839713e+05 6.839739e+05 2.586
23 irregular 7 5 605 52 2.500000e+00 0.262 faster 0 6.839753e+05 6.839784e+05 3.076
23 irregular 7 6 606 51 2.500000e+00 0.321 faster 0 6.839798e+05 6.839834e+05 3.677
23 irregular 7 7 607 70 2.500000e+00 0.271 faster 1 6.839848e+05 6.839878e+05 3.012
23 irregular 7 8 608 50 2 0.442 faster 0 6.839894e+05 6.839923e+05 2.914
23 irregular 7 9 609 49 3 0.413 faster 0 6.839939e+05 6.839975e+05 3.636
23 irregular 7 10 610 72 2.500000e+00 0.474 faster 1 6.839991e+05 6.840021e+05 2.992
23 irregular 7 11 611 49 2.500000e+00 0.553 slower 1 6.840033e+05 6.840066e+05 3.340
23 irregular 7 12 612 71 3 0.586 faster 1 6.840082e+05 6.840117e+05 3.551
23 irregular 7 13 613 50 2 0.373 slower 1 6.840131e+05 6.840157e+05 2.655
23 irregular 7 14 614 70 2 0.384 faster 1 6.840172e+05 6.840199e+05 2.739
23 irregular 7 15 615 51 2 0.139 slower 1 6.840212e+05 6.840239e+05 2.664
23 irregular 7 16 616 51 3 0.373 slower 1 6.840249e+05 6.840287e+05 3.780
23 irregular 7 17 617 68 1 0.568 faster 1 6.840303e+05 6.840328e+05 2.462
23 irregular 7 18 618 68 3 0.338 faster 1 6.840341e+05 6.840377e+05 3.506
23 irregular 7 19 619 53 1 0.245 slower 1 6.840390e+05 6.840407e+05 1.685
23 irregular 7 20 620 53 3 0.143 slower 1 6.840418e+05 6.840460e+05 4.141
23 irregular 7 21 621 66 1.500000e+00 0.477 faster 1 6.840475e+05 6.840496e+05 2.051
23 irregular 7 22 622 66 2.500000e+00 0.268 faster 1 6.840510e+05 6.840540e+05 3.002
23 irregular 7 23 623 55 3 0.436 slower 1 6.840555e+05 6.840592e+05 3.649
23 irregular 7 24 624 55 1 0.272 slower 1 6.840604e+05 6.840624e+05 1.939
23 irregular 7 25 625 64 1.500000e+00 0.172 faster 1 6.840637e+05 6.840657e+05 2.074
23 irregular 7 26 626 64 1.500000e+00 0.251 faster 1 6.840670e+05 6.840691e+05 2.022
23 irregular 7 27 627 57 1 0.108 faster 0 6.840703e+05 6.840721e+05 1.864
23 irregular 7 28 628 64 2 0.335 faster 1 6.840735e+05 6.840760e+05 2.485
23 irregular 7 29 629 56 2.500000e+00 0.296 slower 1 6.840777e+05 6.840808e+05 3.082
23 irregular 7 30 630 57 1.500000e+00 0.402 slower 1 6.840823e+05 6.840847e+05 2.338
23 irregular 7 31 631 63 1.500000e+00 0.363 faster 1 6.840861e+05 6.840881e+05 2.030
23 irregular 7 32 632 62 1 0.302 slower 0 6.840895e+05 6.840915e+05 1.982
23 irregular 7 33 633 57 2 0.119 faster 0 6.840927e+05 6.840960e+05 3.215
23 irregular 7 34 634 56 1 0.156 faster 0 6.840972e+05 6.840997e+05 2.459
23 irregular 7 35 635 55 2 0.292 slower 1 6.841012e+05 6.841037e+05 2.575
23 irregular 7 36 636 55 2 0.274 slower 1 6.841054e+05 6.841079e+05 2.532
23 irregular 7 37 637 64 1.500000e+00 0.496 faster 1 6.841096e+05 6.841126e+05 3.019
23 irregular 7 38 638 64 2.500000e+00 0.321 slower 0 6.841141e+05 6.841174e+05 3.393
23 irregular 7 39 639 55 2.500000e+00 0.246 slower 1 6.841188e+05 6.841219e+05 3.094
23 irregular 7 40 640 64 2.500000e+00 0.512 faster 1 6.841235e+05 6.841267e+05 3.147
23 irregular 7 41 641 64 2.500000e+00 0.448 faster 1 6.841282e+05 6.841312e+05 3.004
23 irregular 7 42 642 63 2 0.126 faster 1 6.841324e+05 6.841349e+05 2.458
23 irregular 7 43 643 57 1 0.533 faster 0 6.841365e+05 6.841384e+05 1.891
23 irregular 7 44 644 56 3 0.466 slower 1 6.841399e+05 6.841440e+05 4.057
23 irregular 7 45 645 63 2.500000e+00 0.480 faster 1 6.841457e+05 6.841489e+05 3.284
23 irregular 7 46 646 63 1 0.369 slower 0 6.841503e+05 6.841524e+05 2.023
23 irregular 7 47 647 56 3 0.426 slower 1 6.841539e+05 6.841578e+05 3.938
23 irregular 7 48 648 63 1.500000e+00 0.496 faster 1 6.841595e+05 6.841618e+05 2.361
23 irregular 7 49 649 57 2 0.562 faster 0 6.841641e+05 6.841670e+05 2.938
23 irregular 7 50 650 56 2 0.553 slower 1 6.841692e+05 6.841719e+05 2.650
23 irregular 7 51 651 57 1.500000e+00 0.514 faster 0 6.841736e+05 6.841765e+05 2.907
23 irregular 7 52 652 64 2 0.589 faster 1 6.841782e+05 6.841809e+05 2.636
23 irregular 7 53 653 56 3 0.447 faster 0 6.841824e+05 6.841865e+05 4.076
23 irregular 7 54 654 65 1.500000e+00 0.582 faster 1 6.841882e+05 6.841902e+05 2.062
23 irregular 7 55 655 56 2.500000e+00 0.459 slower 1 6.841918e+05 6.841951e+05 3.257
23 irregular 7 56 656 56 1.500000e+00 0.501 slower 1 6.841967e+05 6.841990e+05 2.275
23 irregular 7 57 657 57 3 0.416 slower 1 6.842004e+05 6.842049e+05 4.511
23 irregular 7 58 658 63 3 0.273 faster 1 6.842063e+05 6.842098e+05 3.464
23 irregular 7 59 659 62 1 0.346 faster 1 6.842117e+05 6.842136e+05 1.880
23 irregular 7 60 660 62 1 0.180 faster 1 6.842149e+05 6.842165e+05 1.621
23 irregular 7 61 661 61 2.500000e+00 0.329 faster 1 6.842179e+05 6.842212e+05 3.280
23 irregular 7 62 662 59 2.500000e+00 0.187 faster 0 6.842225e+05 6.842255e+05 3.028
23 irregular 7 63 663 58 1.500000e+00 0.287 faster 0 6.842269e+05 6.842289e+05 2.029
23 irregular 7 64 664 57 1 0.293 faster 0 6.842304e+05 6.842319e+05 1.548
23 irregular 7 65 665 64 1 0.406 faster 1 6.842334e+05 6.842348e+05 1.408
23 irregular 7 66 666 63 2.500000e+00 0.102 faster 1 6.842360e+05 6.842390e+05 3.010
23 irregular 7 67 667 57 2.500000e+00 0.382 faster 0 6.842405e+05 6.842434e+05 2.971
23 irregular 7 68 668 56 1 0.276 slower 1 6.842449e+05 6.842466e+05 1.793
23 irregular 7 69 669 57 1.500000e+00 0.446 faster 0 6.842482e+05 6.842515e+05 3.238
23 irregular 7 70 670 64 3 0.235 faster 1 6.842524e+05 6.842559e+05 3.494
23 irregular 7 71 671 64 3 0.238 faster 1 6.842572e+05 6.842607e+05 3.535
23 irregular 7 72 672 63 2.500000e+00 0.383 faster 1 6.842622e+05 6.842651e+05 2.949
23 irregular 7 73 673 57 2.500000e+00 0.521 slower 1 6.842663e+05 6.842692e+05 2.934
23 irregular 7 74 674 62 1.500000e+00 0.487 faster 1 6.842708e+05 6.842730e+05 2.213
23 irregular 7 75 675 62 3 0.364 slower 0 6.842746e+05 6.842793e+05 4.713
23 irregular 7 76 676 57 2 0.498 faster 0 6.842805e+05 6.842832e+05 2.746
23 irregular 7 77 677 64 3 0.521 faster 1 6.842849e+05 6.842885e+05 3.594
23 irregular 7 78 678 63 1.500000e+00 0.598 faster 1 6.842902e+05 6.842922e+05 2.005
23 irregular 7 79 679 57 1 0.368 faster 0 6.842937e+05 6.842953e+05 1.561
23 irregular 7 80 680 64 1 0.418 faster 1 6.842967e+05 6.842983e+05 1.557
23 irregular 7 81 681 57 1 0.541 faster 0 6.843000e+05 6.843018e+05 1.804
23 irregular 7 82 682 64 1 0.118 faster 1 6.843032e+05 6.843048e+05 1.561
23 irregular 7 83 683 64 1 0.438 faster 1 6.843063e+05 6.843078e+05 1.497
23 irregular 7 84 684 57 1.500000e+00 0.129 faster 0 6.843086e+05 6.843116e+05 2.958
23 irregular 7 85 685 56 1 0.143 slower 1 6.843129e+05 6.843150e+05 2.072
23 irregular 7 86 686 56 3 0.177 faster 0 6.843162e+05 6.843209e+05 4.717
23 irregular 7 87 687 55 1.500000e+00 0.495 faster 0 6.843227e+05 6.843258e+05 3.073
23 irregular 7 88 688 66 2 0.575 slower 0 6.843273e+05 6.843308e+05 3.448
23 irregular 7 89 689 67 3 0.349 faster 1 6.843324e+05 6.843369e+05 4.475
23 irregular 7 90 690 54 2 0.230 slower 1 6.843383e+05 6.843410e+05 2.733
23 irregular 7 91 691 66 3 0.596 faster 1 6.843428e+05 6.843464e+05 3.661
23 irregular 7 92 692 65 3 0.102 faster 1 6.843476e+05 6.843512e+05 3.519
23 irregular 7 93 693 55 3 0.340 faster 0 6.843526e+05 6.843576e+05 4.942
23 irregular 7 94 694 66 2 0.436 faster 1 6.843591e+05 6.843617e+05 2.589
23 irregular 7 95 695 65 1 0.296 faster 1 6.843632e+05 6.843653e+05 2.055
23 irregular 7 96 696 65 2 0.210 faster 1 6.843666e+05 6.843692e+05 2.653
23 irregular 7 97 697 64 2 0.418 faster 1 6.843714e+05 6.843741e+05 2.634
23 irregular 7 98 698 56 1.500000e+00 0.430 faster 0 6.843761e+05 6.843788e+05 2.683
23 irregular 7 99 699 55 1.500000e+00 0.408 slower 1 6.843803e+05 6.843825e+05 2.236
23 irregular 7 100 700 64 2 0.132 faster 1 6.843838e+05 6.843864e+05 2.615
23 regular 8 1 701 64 2.500000e+00 0.496 faster 1 6.844163e+05 6.844194e+05 3.134
23 regular 8 2 702 63 2.500000e+00 0.389 faster 1 6.844208e+05 6.844241e+05 3.225
23 regular 8 3 703 57 2.500000e+00 0.168 faster 0 6.844252e+05 6.844282e+05 2.964
23 regular 8 4 704 64 2.500000e+00 0.597 slower 0 6.844299e+05 6.844335e+05 3.574
23 regular 8 5 705 65 2.500000e+00 0.190 slower 0 6.844343e+05 6.844379e+05 3.637
23 regular 8 6 706 54 2.500000e+00 0.524 slower 1 6.844395e+05 6.844425e+05 2.956
23 regular 8 7 707 65 2.500000e+00 0.485 faster 1 6.844436e+05 6.844466e+05 3.054
23 regular 8 8 708 65 2.500000e+00 0.248 faster 1 6.844475e+05 6.844516e+05 4.037
23 regular 8 9 709 56 2.500000e+00 0.220 slower 1 6.844524e+05 6.844561e+05 3.640
23 regular 8 10 710 56 2.500000e+00 0.113 slower 1 6.844572e+05 6.844604e+05 3.173
23 regular 8 11 711 63 2.500000e+00 0.123 faster 1 6.844616e+05 6.844650e+05 3.454
23 regular 8 12 712 57 2.500000e+00 0.501 faster 0 6.844667e+05 6.844705e+05 3.816
23 regular 8 13 713 56 2.500000e+00 0.217 faster 0 6.844718e+05 6.844749e+05 3.171
23 regular 8 14 714 55 2.500000e+00 0.238 slower 1 6.844762e+05 6.844793e+05 3.124
23 regular 8 15 715 56 2.500000e+00 0.378 slower 1 6.844808e+05 6.844842e+05 3.461
23 regular 8 16 716 56 2.500000e+00 0.130 slower 1 6.844854e+05 6.844885e+05 3.127
23 regular 8 17 717 63 2.500000e+00 0.196 slower 0 6.844898e+05 6.844929e+05 3.048
23 regular 8 18 718 56 2.500000e+00 0.519 slower 1 6.844944e+05 6.844976e+05 3.117
23 regular 8 19 719 64 2.500000e+00 0.346 slower 0 6.844990e+05 6.845021e+05 3.106
23 regular 8 20 720 65 2.500000e+00 0.579 slower 0 6.845037e+05 6.845068e+05 3.039
23 regular 8 21 721 54 2.500000e+00 0.111 slower 1 6.845080e+05 6.845119e+05 3.890
23 regular 8 22 722 65 2.500000e+00 0.584 slower 0 6.845135e+05 6.845167e+05 3.159
23 regular 8 23 723 54 2.500000e+00 0.379 faster 0 6.845183e+05 6.845213e+05 3.038
23 regular 8 24 724 67 2.500000e+00 0.123 faster 1 6.845226e+05 6.845257e+05 3.178
23 regular 8 25 725 67 2.500000e+00 0.397 faster 1 6.845272e+05 6.845313e+05 4.080
23 regular 8 26 726 66 2.500000e+00 0.527 faster 1 6.845329e+05 6.845361e+05 3.163
23 regular 8 27 727 66 2.500000e+00 0.179 faster 1 6.845373e+05 6.845404e+05 3.030
23 regular 8 28 728 65 2.500000e+00 0.335 faster 1 6.845419e+05 6.845449e+05 3.016
23 regular 8 29 729 55 2.500000e+00 0.274 faster 0 6.845464e+05 6.845507e+05 4.349
23 regular 8 30 730 66 2.500000e+00 0.231 faster 1 6.845524e+05 6.845559e+05 3.576
23 regular 8 31 731 65 2.500000e+00 0.420 faster 1 6.845575e+05 6.845606e+05 3.154
23 regular 8 32 732 55 2.500000e+00 0.341 faster 0 6.845622e+05 6.845652e+05 3.042
23 regular 8 33 733 54 2.500000e+00 0.507 slower 1 6.845668e+05 6.845697e+05 2.962
23 regular 8 34 734 65 2.500000e+00 0.148 slower 0 6.845713e+05 6.845744e+05 3.095
23 regular 8 35 735 66 2.500000e+00 0.258 slower 0 6.845758e+05 6.845788e+05 3.027
23 regular 8 36 736 53 2.500000e+00 0.107 slower 1 6.845800e+05 6.845834e+05 3.360
23 regular 8 37 737 67 2.500000e+00 0.276 slower 0 6.845847e+05 6.845881e+05 3.395
23 regular 8 38 738 68 2.500000e+00 0.136 slower 0 6.845895e+05 6.845929e+05 3.420
23 regular 8 39 739 69 2.500000e+00 0.450 slower 0 6.845945e+05 6.845984e+05 3.849
23 regular 8 40 740 50 2.500000e+00 0.290 slower 1 6.845997e+05 6.846030e+05 3.312
23 regular 8 41 741 69 2.500000e+00 0.111 faster 1 6.846047e+05 6.846087e+05 4.069
23 regular 8 42 742 69 2.500000e+00 0.532 faster 1 6.846104e+05 6.846138e+05 3.365
23 regular 8 43 743 68 2.500000e+00 0.303 faster 1 6.846154e+05 6.846185e+05 3.021
23 regular 8 44 744 52 2.500000e+00 0.393 faster 0 6.846207e+05 6.846241e+05 3.333
23 regular 8 45 745 51 2.500000e+00 0.117 faster 0 6.846252e+05 6.846296e+05 4.355
23 regular 8 46 746 70 2.500000e+00 0.167 faster 1 6.846306e+05 6.846341e+05 3.561
23 regular 8 47 747 51 2.500000e+00 0.435 slower 1 6.846354e+05 6.846385e+05 3.115
23 regular 8 48 748 69 2.500000e+00 0.429 faster 1 6.846401e+05 6.846436e+05 3.500
23 regular 8 49 749 52 2.500000e+00 0.261 slower 1 6.846451e+05 6.846488e+05 3.719
23 regular 8 50 750 68 2.500000e+00 0.278 slower 0 6.846503e+05 6.846542e+05 3.986
23 regular 8 51 751 69 2.500000e+00 0.185 faster 1 6.846558e+05 6.846590e+05 3.184
23 regular 8 52 752 52 2.500000e+00 0.270 slower 1 6.846603e+05 6.846637e+05 3.406
23 regular 8 53 753 68 2.500000e+00 0.309 faster 1 6.846655e+05 6.846695e+05 4.045
23 regular 8 54 754 53 2.500000e+00 0.470 slower 1 6.846716e+05 6.846748e+05 3.219
23 regular 8 55 755 53 2.500000e+00 0.129 faster 0 6.846760e+05 6.846794e+05 3.393
23 regular 8 56 756 52 2.500000e+00 0.111 slower 1 6.846805e+05 6.846837e+05 3.151
23 regular 8 57 757 53 2.500000e+00 0.379 faster 0 6.846850e+05 6.846882e+05 3.165
23 regular 8 58 758 52 2.500000e+00 0.547 faster 0 6.846898e+05 6.846929e+05 3.096
23 regular 8 59 759 51 2.500000e+00 0.451 faster 0 6.846943e+05 6.846974e+05 3.113
23 regular 8 60 760 70 2.500000e+00 0.175 faster 1 6.846995e+05 6.847028e+05 3.295
23 regular 8 61 761 50 2.500000e+00 0.497 slower 1 6.847043e+05 6.847075e+05 3.228
23 regular 8 62 762 51 2.500000e+00 0.141 slower 1 6.847087e+05 6.847118e+05 3.088
23 regular 8 63 763 69 2.500000e+00 0.429 slower 0 6.847133e+05 6.847167e+05 3.387
23 regular 8 64 764 50 2.500000e+00 0.147 faster 0 6.847178e+05 6.847215e+05 3.636
23 regular 8 65 765 49 2.500000e+00 0.364 slower 1 6.847229e+05 6.847262e+05 3.283
23 regular 8 66 766 70 2.500000e+00 0.241 faster 1 6.847275e+05 6.847306e+05 3.116
23 regular 8 67 767 70 2.500000e+00 0.190 faster 1 6.847318e+05 6.847349e+05 3.070
23 regular 8 68 768 51 2.500000e+00 0.575 faster 0 6.847365e+05 6.847396e+05 3.104
23 regular 8 69 769 70 2.500000e+00 0.113 faster 1 6.847407e+05 6.847438e+05 3.077
23 regular 8 70 770 50 2.500000e+00 0.204 faster 0 6.847451e+05 6.847482e+05 3.139
23 regular 8 71 771 49 2.500000e+00 0.286 faster 0 6.847500e+05 6.847532e+05 3.251
23 regular 8 72 772 72 2.500000e+00 0.210 faster 1 6.847549e+05 6.847579e+05 3.049
23 regular 8 73 773 49 2.500000e+00 0.495 faster 0 6.847595e+05 6.847629e+05 3.476
23 regular 8 74 774 72 2.500000e+00 0.228 faster 1 6.847644e+05 6.847684e+05 4.017
23 regular 8 75 775 72 2.500000e+00 0.512 slower 0 6.847699e+05 6.847733e+05 3.373
23 regular 8 76 776 47 2.500000e+00 0.260 slower 1 6.847748e+05 6.847779e+05 3.088
23 regular 8 77 777 48 2.500000e+00 0.393 slower 1 6.847796e+05 6.847827e+05 3.092
23 regular 8 78 778 48 2.500000e+00 0.547 slower 1 6.847843e+05 6.847873e+05 2.971
23 regular 8 79 779 71 2.500000e+00 0.504 slower 0 6.847889e+05 6.847923e+05 3.374
23 regular 8 80 780 72 2.500000e+00 0.389 faster 1 6.847937e+05 6.847976e+05 3.866
23 regular 8 81 781 72 2.500000e+00 0.500 faster 1 6.847992e+05 6.848022e+05 2.996
23 regular 8 82 782 49 2.500000e+00 0.463 slower 1 6.848036e+05 6.848067e+05 3.041
23 regular 8 83 783 49 2.500000e+00 0.581 slower 1 6.848085e+05 6.848116e+05 3.046
23 regular 8 84 784 70 2.500000e+00 0.593 faster 1 6.848135e+05 6.848165e+05 3.000
23 regular 8 85 785 50 2.500000e+00 0.318 slower 1 6.848180e+05 6.848211e+05 3.091
23 regular 8 86 786 51 2.500000e+00 0.233 slower 1 6.848223e+05 6.848253e+05 3.024
23 regular 8 87 787 69 2.500000e+00 0.324 slower 0 6.848269e+05 6.848301e+05 3.209
23 regular 8 88 788 50 2.500000e+00 0.545 faster 0 6.848318e+05 6.848349e+05 3.104
23 regular 8 89 789 71 2.500000e+00 0.228 faster 1 6.848362e+05 6.848392e+05 2.984
23 regular 8 90 790 70 2.500000e+00 0.211 faster 1 6.848406e+05 6.848436e+05 2.960
23 regular 8 91 791 70 2.500000e+00 0.279 faster 1 6.848449e+05 6.848481e+05 3.146
23 regular 8 92 792 69 2.500000e+00 0.142 faster 1 6.848493e+05 6.848522e+05 2.915
23 regular 8 93 793 69 2.500000e+00 0.528 faster 1 6.848538e+05 6.848569e+05 3.038
23 regular 8 94 794 52 2.500000e+00 0.413 slower 1 6.848585e+05 6.848616e+05 3.181
23 regular 8 95 795 52 2.500000e+00 0.517 slower 1 6.848634e+05 6.848665e+05 3.068
23 regular 8 96 796 53 2.500000e+00 0.404 slower 1 6.848679e+05 6.848710e+05 3.082
23 regular 8 97 797 53 2.500000e+00 0.325 faster 0 6.848726e+05 6.848756e+05 3.027
23 regular 8 98 798 68 2.500000e+00 0.346 faster 1 6.848776e+05 6.848806e+05 3.003
23 regular 8 99 799 53 2.500000e+00 0.397 slower 1 6.848823e+05 6.848855e+05 3.166
23 regular 8 100 800 53 2.500000e+00 0.344 slower 1 6.848870e+05 6.848900e+05 2.985
23 irregular 9 1 801 66 3 0.138 faster 1 6.849183e+05 6.849219e+05 3.625
23 irregular 9 2 802 54 3 0.449 faster 0 6.849235e+05 6.849276e+05 4.067
23 irregular 9 3 803 67 2.500000e+00 0.111 faster 1 6.849290e+05 6.849320e+05 3.001
23 irregular 9 4 804 54 1.500000e+00 0.288 faster 0 6.849335e+05 6.849359e+05 2.409
23 irregular 9 5 805 67 2.500000e+00 0.325 faster 1 6.849374e+05 6.849404e+05 3.021
23 irregular 9 6 806 53 2 0.584 faster 0 6.849420e+05 6.849448e+05 2.813
23 irregular 9 7 807 68 3 0.354 faster 1 6.849463e+05 6.849498e+05 3.568
23 irregular 9 8 808 53 2 0.192 faster 0 6.849515e+05 6.849546e+05 3.070
23 irregular 9 9 809 52 1 0.481 slower 1 6.849562e+05 6.849590e+05 2.875
23 irregular 9 10 810 52 2 0.425 faster 0 6.849608e+05 6.849648e+05 4.049
23 irregular 9 11 811 51 1.500000e+00 0.204 slower 1 6.849664e+05 6.849694e+05 3.002
23 irregular 9 12 812 68 2 0.123 faster 1 6.849707e+05 6.849732e+05 2.502
23 irregular 9 13 813 68 1 0.218 faster 1 6.849746e+05 6.849762e+05 1.644
23 irregular 9 14 814 53 1.500000e+00 0.545 faster 0 6.849779e+05 6.849801e+05 2.244
23 irregular 9 15 815 52 2.500000e+00 0.389 faster 0 6.849817e+05 6.849851e+05 3.423
23 irregular 9 16 816 51 2 0.312 slower 1 6.849865e+05 6.849897e+05 3.145
23 irregular 9 17 817 69 1.500000e+00 0.493 faster 1 6.849913e+05 6.849936e+05 2.284
23 irregular 9 18 818 52 1.500000e+00 0.266 slower 1 6.849950e+05 6.849972e+05 2.133
23 irregular 9 19 819 68 1.500000e+00 0.136 faster 1 6.849984e+05 6.850005e+05 2.098
23 irregular 9 20 820 53 3 0.582 faster 0 6.850028e+05 6.850069e+05 4.093
23 irregular 9 21 821 52 3 0.236 faster 0 6.850082e+05 6.850117e+05 3.518
23 irregular 9 22 822 51 3 0.364 slower 1 6.850132e+05 6.850168e+05 3.638
23 irregular 9 23 823 69 3 0.142 faster 1 6.850180e+05 6.850217e+05 3.714
23 irregular 9 24 824 68 2.500000e+00 0.288 faster 1 6.850238e+05 6.850268e+05 2.996
23 irregular 9 25 825 52 3 0.239 faster 0 6.850282e+05 6.850317e+05 3.535
23 irregular 9 26 826 69 1 0.244 faster 1 6.850331e+05 6.850347e+05 1.616
23 irregular 9 27 827 68 1 0.251 faster 1 6.850360e+05 6.850375e+05 1.541
23 irregular 9 28 828 52 1 0.105 faster 0 6.850387e+05 6.850402e+05 1.566
23 irregular 9 29 829 51 1 0.396 slower 1 6.850417e+05 6.850435e+05 1.745
23 irregular 9 30 830 52 3 0.486 slower 1 6.850450e+05 6.850487e+05 3.646
23 irregular 9 31 831 68 3 0.290 slower 0 6.850500e+05 6.850546e+05 4.543
23 irregular 9 32 832 51 2.500000e+00 0.201 slower 1 6.850555e+05 6.850584e+05 2.909
23 irregular 9 33 833 68 1 0.327 faster 1 6.850599e+05 6.850615e+05 1.573
23 irregular 9 34 834 68 3 0.314 faster 1 6.850630e+05 6.850665e+05 3.487
23 irregular 9 35 835 53 3 0.367 faster 0 6.850679e+05 6.850716e+05 3.734
23 irregular 9 36 836 68 2.500000e+00 0.314 faster 1 6.850732e+05 6.850761e+05 2.989
23 irregular 9 37 837 68 1 0.113 faster 1 6.850773e+05 6.850790e+05 1.641
23 irregular 9 38 838 67 2.500000e+00 0.155 faster 1 6.850803e+05 6.850836e+05 3.284
23 irregular 9 39 839 67 1.500000e+00 0.226 faster 1 6.850849e+05 6.850874e+05 2.554
23 irregular 9 40 840 66 2 0.113 faster 1 6.850882e+05 6.850908e+05 2.587
23 irregular 9 41 841 66 1.500000e+00 0.150 faster 1 6.850922e+05 6.850943e+05 2.043
23 irregular 9 42 842 65 2.500000e+00 0.257 faster 1 6.850955e+05 6.850986e+05 3.017
23 irregular 9 43 843 55 1 0.580 slower 1 6.851010e+05 6.851029e+05 1.924
23 irregular 9 44 844 64 1 0.368 faster 1 6.851043e+05 6.851060e+05 1.755
23 irregular 9 45 845 56 1.500000e+00 0.401 slower 1 6.851076e+05 6.851097e+05 2.177
23 irregular 9 46 846 63 3 0.425 faster 1 6.851112e+05 6.851148e+05 3.526
23 irregular 9 47 847 57 2 0.340 slower 1 6.851162e+05 6.851191e+05 2.942
23 irregular 9 48 848 62 1.500000e+00 0.532 slower 0 6.851207e+05 6.851231e+05 2.413
23 irregular 9 49 849 57 3 0.420 slower 1 6.851247e+05 6.851285e+05 3.777
23 irregular 9 50 850 57 2.500000e+00 0.599 faster 0 6.851304e+05 6.851339e+05 3.498
23 irregular 9 51 851 56 2.500000e+00 0.499 faster 0 6.851357e+05 6.851386e+05 2.936
23 irregular 9 52 852 65 2.500000e+00 0.595 faster 1 6.851405e+05 6.851436e+05 3.041
23 irregular 9 53 853 64 2 0.234 faster 1 6.851452e+05 6.851476e+05 2.464
23 irregular 9 54 854 64 2.500000e+00 0.166 faster 1 6.851489e+05 6.851518e+05 2.942
23 irregular 9 55 855 63 1 0.460 faster 1 6.851534e+05 6.851550e+05 1.561
23 irregular 9 56 856 57 2 0.253 faster 0 6.851562e+05 6.851590e+05 2.719
23 irregular 9 57 857 56 2 0.387 faster 0 6.851605e+05 6.851639e+05 3.381
23 irregular 9 58 858 65 2.500000e+00 0.182 faster 1 6.851650e+05 6.851680e+05 2.976
23 irregular 9 59 859 64 1 0.226 faster 1 6.851694e+05 6.851709e+05 1.562
23 irregular 9 60 860 56 2 0.266 faster 0 6.851723e+05 6.851748e+05 2.497
23 irregular 9 61 861 55 1 0.338 faster 0 6.851761e+05 6.851778e+05 1.727
23 irregular 9 62 862 66 1.500000e+00 0.430 faster 1 6.851796e+05 6.851822e+05 2.562
23 irregular 9 63 863 65 2 0.308 faster 1 6.851837e+05 6.851861e+05 2.473
23 irregular 9 64 864 65 2 0.271 faster 1 6.851875e+05 6.851899e+05 2.446
23 irregular 9 65 865 64 2 0.226 faster 1 6.851912e+05 6.851937e+05 2.489
23 irregular 9 66 866 56 2.500000e+00 0.102 faster 0 6.851955e+05 6.851985e+05 2.964
23 irregular 9 67 867 55 2 0.275 faster 0 6.851998e+05 6.852028e+05 2.967
23 irregular 9 68 868 66 2 0.389 faster 1 6.852044e+05 6.852068e+05 2.449
23 irregular 9 69 869 55 1 0.434 slower 1 6.852083e+05 6.852102e+05 1.911
23 irregular 9 70 870 65 1.500000e+00 0.588 faster 1 6.852120e+05 6.852140e+05 2.056
23 irregular 9 71 871 56 1 0.265 faster 0 6.852154e+05 6.852176e+05 2.240
23 irregular 9 72 872 65 1.500000e+00 0.571 faster 1 6.852194e+05 6.852214e+05 1.991
23 irregular 9 73 873 65 3 0.141 slower 0 6.852227e+05 6.852272e+05 4.500
23 irregular 9 74 874 54 2.500000e+00 0.396 slower 1 6.852288e+05 6.852319e+05 3.075
23 irregular 9 75 875 55 2.500000e+00 0.214 slower 1 6.852338e+05 6.852368e+05 3.051
23 irregular 9 76 876 55 1.500000e+00 0.585 slower 1 6.852386e+05 6.852408e+05 2.199
23 irregular 9 77 877 64 3 0.396 faster 1 6.852423e+05 6.852458e+05 3.515
23 irregular 9 78 878 64 2 0.358 faster 1 6.852473e+05 6.852498e+05 2.556
23 irregular 9 79 879 57 2 0.591 faster 0 6.852514e+05 6.852539e+05 2.486
23 irregular 9 80 880 56 3 0.248 faster 0 6.852552e+05 6.852589e+05 3.640
23 irregular 9 81 881 55 1.500000e+00 0.216 faster 0 6.852602e+05 6.852623e+05 2.120
23 irregular 9 82 882 54 1 0.247 faster 0 6.852636e+05 6.852652e+05 1.590
23 irregular 9 83 883 67 1.500000e+00 0.156 faster 1 6.852665e+05 6.852685e+05 2.067
23 irregular 9 84 884 53 2.500000e+00 0.366 slower 1 6.852700e+05 6.852735e+05 3.485
23 irregular 9 85 885 54 1.500000e+00 0.165 slower 1 6.852747e+05 6.852769e+05 2.134
23 irregular 9 86 886 66 1.500000e+00 0.596 faster 1 6.852786e+05 6.852807e+05 2.128
23 irregular 9 87 887 65 2.500000e+00 0.428 faster 1 6.852823e+05 6.852853e+05 3.028
23 irregular 9 88 888 55 1.500000e+00 0.538 slower 1 6.852869e+05 6.852892e+05 2.270
23 irregular 9 89 889 64 3 0.195 faster 1 6.852905e+05 6.852941e+05 3.621
23 irregular 9 90 890 64 3 0.401 faster 1 6.852955e+05 6.852990e+05 3.470
23 irregular 9 91 891 63 1 0.106 faster 1 6.853001e+05 6.853017e+05 1.597
23 irregular 9 92 892 57 2.500000e+00 0.518 slower 1 6.853034e+05 6.853067e+05 3.306
23 irregular 9 93 893 62 1 0.498 faster 1 6.853083e+05 6.853100e+05 1.667
23 irregular 9 94 894 62 2 0.123 faster 1 6.853112e+05 6.853138e+05 2.550
23 irregular 9 95 895 61 2 0.414 faster 1 6.853153e+05 6.853181e+05 2.855
23 irregular 9 96 896 59 1 0.400 faster 0 6.853196e+05 6.853218e+05 2.136
23 irregular 9 97 897 58 2.500000e+00 0.402 slower 1 6.853233e+05 6.853274e+05 4.076
23 irregular 9 98 898 59 3 0.257 faster 0 6.853288e+05 6.853332e+05 4.411
23 irregular 9 99 899 58 1 0.133 slower 1 6.853346e+05 6.853367e+05 2.101
23 irregular 9 100 900 58 1.500000e+00 0.586 faster 0 6.853385e+05 6.853408e+05 2.264
23 regular 10 1 901 63 2 0.279 slower 0 6.853944e+05 6.853973e+05 2.940
23 regular 10 2 902 64 2 0.504 slower 0 6.853988e+05 6.854016e+05 2.772
23 regular 10 3 903 55 2 0.568 faster 0 6.854032e+05 6.854057e+05 2.497
23 regular 10 4 904 54 2 0.284 slower 1 6.854070e+05 6.854096e+05 2.565
23 regular 10 5 905 65 2 0.208 faster 1 6.854108e+05 6.854134e+05 2.581
23 regular 10 6 906 55 2 0.488 faster 0 6.854149e+05 6.854175e+05 2.575
23 regular 10 7 907 54 2 0.260 slower 1 6.854187e+05 6.854213e+05 2.549
23 regular 10 8 908 55 2 0.598 slower 1 6.854229e+05 6.854257e+05 2.792
23 regular 10 9 909 55 2 0.448 slower 1 6.854272e+05 6.854300e+05 2.729
23 regular 10 10 910 64 2 0.267 faster 1 6.854312e+05 6.854337e+05 2.561
23 regular 10 11 911 56 2 0.536 slower 1 6.854352e+05 6.854379e+05 2.658
23 regular 10 12 912 63 2 0.308 faster 1 6.854392e+05 6.854422e+05 2.958
23 regular 10 13 913 63 2 0.489 faster 1 6.854438e+05 6.854467e+05 2.938
23 regular 10 14 914 62 2 0.462 faster 1 6.854482e+05 6.854509e+05 2.699
23 regular 10 15 915 62 2 0.365 faster 1 6.854524e+05 6.854551e+05 2.682
23 regular 10 16 916 59 2 0.242 faster 0 6.854565e+05 6.854590e+05 2.494
23 regular 10 17 917 62 2 0.164 faster 1 6.854601e+05 6.854626e+05 2.499
23 regular 10 18 918 58 2 0.560 faster 0 6.854641e+05 6.854672e+05 3.035
23 regular 10 19 919 63 2 0.309 faster 1 6.854685e+05 6.854713e+05 2.821
23 regular 10 20 920 58 2 0.505 faster 0 6.854728e+05 6.854755e+05 2.657
23 regular 10 21 921 57 2 0.558 faster 0 6.854771e+05 6.854796e+05 2.531
23 regular 10 22 922 56 2 0.263 faster 0 6.854809e+05 6.854838e+05 2.962
23 regular 10 23 923 55 2 0.156 slower 1 6.854850e+05 6.854875e+05 2.477
23 regular 10 24 924 65 2 0.463 slower 0 6.854890e+05 6.854917e+05 2.643
23 regular 10 25 925 66 2 0.143 slower 0 6.854935e+05 6.854962e+05 2.707
23 regular 10 26 926 53 2 0.391 slower 1 6.854976e+05 6.855007e+05 3.023
23 regular 10 27 927 66 2 0.473 faster 1 6.855023e+05 6.855049e+05 2.599
23 regular 10 28 928 54 2 0.468 slower 1 6.855067e+05 6.855094e+05 2.718
23 regular 10 29 929 55 2 0.554 slower 1 6.855110e+05 6.855136e+05 2.535
23 regular 10 30 930 55 2 0.165 slower 1 6.855148e+05 6.855184e+05 3.661
23 regular 10 31 931 56 2 0.231 faster 0 6.855199e+05 6.855238e+05 3.975
23 regular 10 32 932 55 2 0.317 slower 1 6.855252e+05 6.855278e+05 2.622
23 regular 10 33 933 65 2 0.523 slower 0 6.855294e+05 6.855319e+05 2.522
23 regular 10 34 934 54 2 0.261 slower 1 6.855335e+05 6.855369e+05 3.391
23 regular 10 35 935 65 2 0.493 faster 1 6.855388e+05 6.855413e+05 2.540
23 regular 10 36 936 55 2 0.571 faster 0 6.855432e+05 6.855457e+05 2.540
23 regular 10 37 937 54 2 0.505 faster 0 6.855478e+05 6.855504e+05 2.613
23 regular 10 38 938 67 2 0.528 faster 1 6.855526e+05 6.855550e+05 2.442
23 regular 10 39 939 66 2 0.478 faster 1 6.855566e+05 6.855590e+05 2.413
23 regular 10 40 940 54 2 0.337 slower 1 6.855604e+05 6.855630e+05 2.570
23 regular 10 41 941 65 2 0.457 faster 1 6.855644e+05 6.855670e+05 2.583
23 regular 10 42 942 65 2 0.477 faster 1 6.855684e+05 6.855709e+05 2.503
23 regular 10 43 943 64 2 0.405 faster 1 6.855725e+05 6.855751e+05 2.662
23 regular 10 44 944 56 2 0.164 slower 1 6.855764e+05 6.855790e+05 2.623
23 regular 10 45 945 57 2 0.280 faster 0 6.855804e+05 6.855830e+05 2.582
23 regular 10 46 946 56 2 0.252 slower 1 6.855843e+05 6.855868e+05 2.474
23 regular 10 47 947 56 2 0.541 faster 0 6.855884e+05 6.855919e+05 3.499
23 regular 10 48 948 65 2 0.237 slower 0 6.855932e+05 6.855960e+05 2.794
23 regular 10 49 949 54 2 0.198 slower 1 6.855973e+05 6.855999e+05 2.583
23 regular 10 50 950 65 2 0.385 faster 1 6.856014e+05 6.856046e+05 3.148
23 regular 10 51 951 55 2 0.558 faster 0 6.856064e+05 6.856089e+05 2.531
23 regular 10 52 952 54 2 0.473 slower 1 6.856105e+05 6.856131e+05 2.661
23 regular 10 53 953 55 2 0.316 slower 1 6.856145e+05 6.856170e+05 2.559
23 regular 10 54 954 65 2 0.245 faster 1 6.856184e+05 6.856210e+05 2.566
23 regular 10 55 955 64 2 0.323 faster 1 6.856223e+05 6.856249e+05 2.587
23 regular 10 56 956 64 2 0.403 faster 1 6.856263e+05 6.856292e+05 2.964
23 regular 10 57 957 57 2 0.276 faster 0 6.856305e+05 6.856329e+05 2.447
23 regular 10 58 958 64 2 0.438 faster 1 6.856343e+05 6.856368e+05 2.442
23 regular 10 59 959 64 2 0.201 faster 1 6.856380e+05 6.856406e+05 2.609
23 regular 10 60 960 63 2 0.152 faster 1 6.856417e+05 6.856443e+05 2.604
23 regular 10 61 961 57 2 0.187 faster 0 6.856456e+05 6.856480e+05 2.419
23 regular 10 62 962 64 2 0.422 faster 1 6.856495e+05 6.856520e+05 2.490
23 regular 10 63 963 57 2 0.545 faster 0 6.856535e+05 6.856560e+05 2.493
23 regular 10 64 964 56 2 0.322 faster 0 6.856576e+05 6.856601e+05 2.542
23 regular 10 65 965 65 2 0.579 slower 0 6.856619e+05 6.856654e+05 3.537
23 regular 10 66 966 66 2 0.327 faster 1 6.856670e+05 6.856697e+05 2.719
23 regular 10 67 967 54 2 0.411 slower 1 6.856717e+05 6.856749e+05 3.264
23 regular 10 68 968 55 2 0.291 faster 0 6.856765e+05 6.856793e+05 2.868
23 regular 10 69 969 54 2 0.389 faster 0 6.856807e+05 6.856833e+05 2.585
23 regular 10 70 970 67 2 0.300 faster 1 6.856853e+05 6.856879e+05 2.573
23 regular 10 71 971 53 2 0.170 slower 1 6.856891e+05 6.856919e+05 2.831
23 regular 10 72 972 54 2 0.457 slower 1 6.856936e+05 6.856962e+05 2.607
23 regular 10 73 973 54 2 0.514 faster 0 6.856978e+05 6.857003e+05 2.562
23 regular 10 74 974 53 2 0.498 slower 1 6.857019e+05 6.857045e+05 2.580
23 regular 10 75 975 66 2 0.218 slower 0 6.857057e+05 6.857083e+05 2.646
23 regular 10 76 976 67 2 0.424 slower 0 6.857098e+05 6.857124e+05 2.562
23 regular 10 77 977 68 2 0.114 slower 0 6.857135e+05 6.857161e+05 2.643
23 regular 10 78 978 69 2 0.346 slower 0 6.857174e+05 6.857200e+05 2.547
23 regular 10 79 979 70 2 0.180 slower 0 6.857212e+05 6.857238e+05 2.581
23 regular 10 80 980 71 2 0.331 slower 0 6.857252e+05 6.857278e+05 2.624
23 regular 10 81 981 72 2 0.408 faster 1 6.857292e+05 6.857317e+05 2.514
23 regular 10 82 982 48 2 0.220 slower 1 6.857332e+05 6.857361e+05 2.901
23 regular 10 83 983 49 2 0.171 slower 1 6.857375e+05 6.857403e+05 2.787
23 regular 10 84 984 71 2 0.120 slower 0 6.857414e+05 6.857443e+05 2.877
23 regular 10 85 985 72 2 0.516 faster 1 6.857459e+05 6.857485e+05 2.689
23 regular 10 86 986 71 2 0.239 faster 1 6.857499e+05 6.857523e+05 2.442
23 regular 10 87 987 49 2 0.176 slower 1 6.857537e+05 6.857564e+05 2.674
23 regular 10 88 988 70 2 0.350 faster 1 6.857578e+05 6.857603e+05 2.490
23 regular 10 89 989 50 2 0.392 slower 1 6.857620e+05 6.857646e+05 2.620
23 regular 10 90 990 69 2 0.143 slower 0 6.857657e+05 6.857685e+05 2.756
23 regular 10 91 991 70 2 0.588 faster 1 6.857701e+05 6.857727e+05 2.633
23 regular 10 92 992 50 2 0.406 slower 1 6.857746e+05 6.857771e+05 2.506
23 regular 10 93 993 51 2 0.571 slower 1 6.857787e+05 6.857812e+05 2.544
23 regular 10 94 994 69 2 0.226 slower 0 6.857823e+05 6.857856e+05 3.268
23 regular 10 95 995 50 2 0.430 slower 1 6.857872e+05 6.857897e+05 2.528
23 regular 10 96 996 51 2 0.305 slower 1 6.857911e+05 6.857936e+05 2.526
23 regular 10 97 997 69 2 0.253 slower 0 6.857950e+05 6.857979e+05 2.919
23 regular 10 98 998 70 2 0.305 faster 1 6.857994e+05 6.858019e+05 2.455
23 regular 10 99 999 69 2 0.327 faster 1 6.858033e+05 6.858058e+05 2.555
23 regular 10 100 1000 69 2 0.354 faster 1 6.858073e+05 6.858102e+05 2.912
