subNo condition blockNo trialNo trialID currentFrequency cueTargetInterval randomPreCueInterval response responseAccuracy startTime responseTime RT
29 irregular 1 1 1 56 1.500000e+00 0.196 none 2 1.815580e+06 1.815585e+06 4.499
29 irregular 1 2 2 64 1.500000e+00 0.305 faster 1 1.815586e+06 1.815588e+06 2.529
29 irregular 1 3 3 64 2.500000e+00 0.318 faster 1 1.815589e+06 1.815593e+06 4.354
29 irregular 1 4 4 62 1.500000e+00 0.345 slower 0 1.815594e+06 1.815597e+06 2.149
29 irregular 1 5 5 56 2.500000e+00 0.419 slower 1 1.815598e+06 1.815601e+06 3.338
29 irregular 1 6 6 56 2 0.543 slower 1 1.815603e+06 1.815605e+06 2.723
29 irregular 1 7 7 62 2 0.393 slower 0 1.815606e+06 1.815609e+06 2.635
29 irregular 1 8 8 56 1.500000e+00 0.239 faster 0 1.815610e+06 1.815613e+06 3.008
29 irregular 1 9 9 66 1 0.562 slower 0 1.815614e+06 1.815617e+06 2.457
29 irregular 1 10 10 68 2.500000e+00 0.240 slower 0 1.815618e+06 1.815622e+06 4.520
29 irregular 1 11 11 70 2 0.561 faster 1 1.815624e+06 1.815627e+06 2.849
29 irregular 1 12 12 70 2 0.471 slower 0 1.815628e+06 1.815633e+06 4.243
29 irregular 1 13 13 72 2.500000e+00 0.227 slower 0 1.815633e+06 1.815637e+06 3.887
29 irregular 1 14 14 74 1.500000e+00 0.436 faster 1 1.815638e+06 1.815641e+06 2.638
29 irregular 1 15 15 48 3 0.357 slower 1 1.815642e+06 1.815646e+06 3.698
29 irregular 1 16 16 72 2 0.132 faster 1 1.815647e+06 1.815650e+06 3.307
29 irregular 1 17 17 49 1.500000e+00 0.429 slower 1 1.815651e+06 1.815654e+06 2.182
29 irregular 1 18 18 71 2.500000e+00 0.333 slower 0 1.815655e+06 1.815659e+06 4.164
29 irregular 1 19 19 48 3 0.292 slower 1 1.815660e+06 1.815664e+06 3.689
29 irregular 1 20 20 49 1.500000e+00 0.522 slower 1 1.815665e+06 1.815667e+06 2.381
29 irregular 1 21 21 71 1 0.586 faster 1 1.815668e+06 1.815670e+06 2.064
29 irregular 1 22 22 50 3 0.453 slower 1 1.815672e+06 1.815675e+06 3.723
29 irregular 1 23 23 50 3 0.253 slower 1 1.815677e+06 1.815681e+06 3.867
29 irregular 1 24 24 69 3 0.433 slower 0 1.815682e+06 1.815688e+06 5.798
29 irregular 1 25 25 50 1 0.430 slower 1 1.815689e+06 1.815691e+06 2.054
29 irregular 1 26 26 50 2.500000e+00 0.152 slower 1 1.815692e+06 1.815695e+06 3.379
29 irregular 1 27 27 69 3 0.147 faster 1 1.815696e+06 1.815700e+06 3.867
29 irregular 1 28 28 51 2 0.319 slower 1 1.815701e+06 1.815704e+06 3.059
29 irregular 1 29 29 52 2 0.364 slower 1 1.815705e+06 1.815709e+06 3.484
29 irregular 1 30 30 52 1.500000e+00 0.341 slower 1 1.815710e+06 1.815712e+06 2.290
29 irregular 1 31 31 53 1.500000e+00 0.281 slower 1 1.815713e+06 1.815715e+06 2.366
29 irregular 1 32 32 53 1 0.367 slower 1 1.815716e+06 1.815718e+06 1.950
29 irregular 1 33 33 54 1 0.370 slower 1 1.815719e+06 1.815721e+06 2.099
29 irregular 1 34 34 66 1.500000e+00 0.579 slower 0 1.815723e+06 1.815726e+06 2.996
29 irregular 1 35 35 53 3 0.178 slower 1 1.815727e+06 1.815731e+06 4.033
29 irregular 1 36 36 54 2 0.181 slower 1 1.815732e+06 1.815737e+06 4.385
29 irregular 1 37 37 66 3 0.420 faster 1 1.815738e+06 1.815742e+06 3.907
29 irregular 1 38 38 65 2 0.367 slower 0 1.815743e+06 1.815746e+06 3.271
29 irregular 1 39 39 66 3 0.315 faster 1 1.815747e+06 1.815751e+06 3.793
29 irregular 1 40 40 66 2.500000e+00 0.385 faster 1 1.815752e+06 1.815756e+06 4.155
29 irregular 1 41 41 55 3 0.395 slower 1 1.815757e+06 1.815762e+06 4.528
29 irregular 1 42 42 55 1 0.467 slower 1 1.815763e+06 1.815765e+06 2.264
29 irregular 1 43 43 64 1 0.308 faster 1 1.815766e+06 1.815769e+06 3.009
29 irregular 1 44 44 64 1 0.393 slower 0 1.815771e+06 1.815773e+06 2.826
29 irregular 1 45 45 65 3 0.366 slower 0 1.815774e+06 1.815779e+06 4.269
29 irregular 1 46 46 66 1.500000e+00 0.134 slower 0 1.815780e+06 1.815783e+06 2.734
29 irregular 1 47 47 67 1.500000e+00 0.278 slower 0 1.815784e+06 1.815786e+06 2.651
29 irregular 1 48 48 68 2.500000e+00 0.400 faster 1 1.815787e+06 1.815791e+06 3.388
29 irregular 1 49 49 53 2 0.302 slower 1 1.815792e+06 1.815794e+06 2.667
29 irregular 1 50 50 67 2.500000e+00 0.371 faster 1 1.815795e+06 1.815799e+06 3.239
29 irregular 1 51 51 54 2.500000e+00 0.485 slower 1 1.815800e+06 1.815803e+06 3.434
29 irregular 1 52 52 54 2 0.155 faster 0 1.815805e+06 1.815808e+06 2.873
29 irregular 1 53 53 53 1 0.227 none 2 1.815808e+06 1.815812e+06 3.999
29 irregular 1 54 54 53 1 0.454 slower 1 1.815814e+06 1.815816e+06 2.355
29 irregular 1 55 55 66 1 0.366 slower 0 1.815817e+06 1.815819e+06 2.256
29 irregular 1 56 56 53 1.500000e+00 0.132 slower 1 1.815820e+06 1.815823e+06 2.705
29 irregular 1 57 57 53 2.500000e+00 0.519 slower 1 1.815824e+06 1.815828e+06 3.567
29 irregular 1 58 58 54 1 0.574 slower 1 1.815829e+06 1.815832e+06 2.420
29 irregular 1 59 59 66 1.500000e+00 0.322 faster 1 1.815833e+06 1.815835e+06 2.413
29 irregular 1 60 60 55 2.500000e+00 0.285 slower 1 1.815836e+06 1.815839e+06 3.149
29 irregular 1 61 61 55 2.500000e+00 0.416 slower 1 1.815840e+06 1.815844e+06 3.421
29 irregular 1 62 62 56 1 0.145 slower 1 1.815845e+06 1.815847e+06 1.865
29 irregular 1 63 63 56 2 0.230 faster 0 1.815848e+06 1.815851e+06 2.942
29 irregular 1 64 64 65 3 0.390 slower 0 1.815853e+06 1.815857e+06 4.143
29 irregular 1 65 65 66 1 0.326 faster 1 1.815859e+06 1.815861e+06 2.217
29 irregular 1 66 66 55 2 0.185 slower 1 1.815862e+06 1.815864e+06 2.776
29 irregular 1 67 67 55 1.500000e+00 0.578 slower 1 1.815866e+06 1.815868e+06 2.271
29 irregular 1 68 68 64 2.500000e+00 0.284 faster 1 1.815869e+06 1.815873e+06 3.774
29 irregular 1 69 69 64 2 0.577 slower 0 1.815874e+06 1.815877e+06 3.000
29 irregular 1 70 70 65 1.500000e+00 0.560 slower 0 1.815878e+06 1.815881e+06 2.621
29 irregular 1 71 71 66 1 0.193 slower 0 1.815882e+06 1.815884e+06 2.264
29 irregular 1 72 72 67 1.500000e+00 0.460 faster 1 1.815885e+06 1.815888e+06 2.428
29 irregular 1 73 73 54 2 0.443 slower 1 1.815889e+06 1.815892e+06 3.630
29 irregular 1 74 74 66 3 0.250 faster 1 1.815893e+06 1.815897e+06 3.786
29 irregular 1 75 75 65 2.500000e+00 0.505 slower 0 1.815899e+06 1.815902e+06 3.476
29 irregular 1 76 76 54 2.500000e+00 0.267 slower 1 1.815903e+06 1.815907e+06 3.665
29 irregular 1 77 77 66 1.500000e+00 0.267 faster 1 1.815908e+06 1.815911e+06 2.495
29 irregular 1 78 78 55 1.500000e+00 0.432 slower 1 1.815912e+06 1.815914e+06 2.315
29 irregular 1 79 79 55 3 0.550 slower 1 1.815915e+06 1.815920e+06 4.103
29 irregular 1 80 80 56 1 0.350 slower 1 1.815921e+06 1.815923e+06 2.259
29 irregular 1 81 81 56 1 0.600 slower 1 1.815924e+06 1.815927e+06 2.483
29 irregular 1 82 82 63 2 0.455 faster 1 1.815928e+06 1.815931e+06 2.992
29 irregular 1 83 83 63 3 0.392 slower 0 1.815932e+06 1.815936e+06 4.383
29 irregular 1 84 84 64 3 0.254 faster 1 1.815937e+06 1.815941e+06 3.881
29 irregular 1 85 85 63 2.500000e+00 0.497 slower 0 1.815943e+06 1.815946e+06 3.971
29 irregular 1 86 86 64 1 0.536 none 2 1.815948e+06 1.815952e+06 4.000
29 irregular 1 87 87 64 1 0.257 faster 1 1.815953e+06 1.815955e+06 2.070
29 irregular 1 88 88 56 3 0.186 slower 1 1.815956e+06 1.815960e+06 4.033
29 irregular 1 89 89 57 3 0.415 slower 1 1.815961e+06 1.815965e+06 4.267
29 irregular 1 90 90 57 2.500000e+00 0.119 faster 0 1.815966e+06 1.815971e+06 4.153
29 irregular 1 91 91 64 3 0.383 slower 0 1.815972e+06 1.815976e+06 4.342
29 irregular 1 92 92 55 2.500000e+00 0.108 faster 0 1.815977e+06 1.815981e+06 3.843
29 irregular 1 93 93 54 3 0.229 slower 1 1.815982e+06 1.815986e+06 3.926
29 irregular 1 94 94 55 2 0.258 slower 1 1.815988e+06 1.815991e+06 3.228
29 irregular 1 95 95 65 2 0.374 faster 1 1.815992e+06 1.815995e+06 2.984
29 irregular 1 96 96 64 1 0.518 faster 1 1.815996e+06 1.815998e+06 2.314
29 irregular 1 97 97 56 1.500000e+00 0.522 slower 1 1.816000e+06 1.816002e+06 2.301
29 irregular 1 98 98 63 2 0.537 faster 1 1.816003e+06 1.816006e+06 3.112
29 irregular 1 99 99 57 2.500000e+00 0.562 slower 1 1.816007e+06 1.816011e+06 3.464
29 irregular 1 100 100 62 2 0.476 slower 0 1.816013e+06 1.816016e+06 3.288
29 regular 2 1 101 63 3 0.132 faster 1 1.816044e+06 1.816048e+06 4.178
29 regular 2 2 102 63 3 0.202 slower 0 1.816049e+06 1.816053e+06 3.898
29 regular 2 3 103 56 3 0.303 faster 0 1.816054e+06 1.816058e+06 3.953
29 regular 2 4 104 55 3 0.253 slower 1 1.816059e+06 1.816063e+06 4.366
29 regular 2 5 105 64 3 0.208 faster 1 1.816065e+06 1.816069e+06 4.108
29 regular 2 6 106 56 3 0.500 faster 0 1.816070e+06 1.816075e+06 4.404
29 regular 2 7 107 65 3 0.204 faster 1 1.816076e+06 1.816080e+06 4.312
29 regular 2 8 108 64 3 0.198 faster 1 1.816081e+06 1.816086e+06 4.231
29 regular 2 9 109 64 3 0.154 faster 1 1.816086e+06 1.816091e+06 4.792
29 regular 2 10 110 57 3 0.486 faster 0 1.816092e+06 1.816096e+06 4.039
29 regular 2 11 111 64 3 0.320 faster 1 1.816098e+06 1.816102e+06 4.049
29 regular 2 12 112 56 3 0.579 faster 0 1.816103e+06 1.816108e+06 4.583
29 regular 2 13 113 65 3 0.134 faster 1 1.816108e+06 1.816113e+06 4.044
29 regular 2 14 114 64 3 0.405 slower 0 1.816114e+06 1.816118e+06 3.996
29 regular 2 15 115 65 3 0.111 faster 1 1.816119e+06 1.816124e+06 4.792
29 regular 2 16 116 65 3 0.358 slower 0 1.816125e+06 1.816129e+06 4.388
29 regular 2 17 117 54 3 0.406 faster 0 1.816130e+06 1.816134e+06 3.933
29 regular 2 18 118 53 3 0.500 faster 0 1.816135e+06 1.816140e+06 4.520
29 regular 2 19 119 52 3 0.361 slower 1 1.816141e+06 1.816146e+06 4.265
29 regular 2 20 120 53 3 0.322 faster 0 1.816146e+06 1.816152e+06 5.753
29 regular 2 21 121 68 3 0.147 faster 1 1.816153e+06 1.816158e+06 5.128
29 regular 2 22 122 52 3 0.547 faster 0 1.816160e+06 1.816166e+06 5.965
29 regular 2 23 123 51 3 0.492 faster 0 1.816167e+06 1.816171e+06 4.304
29 regular 2 24 124 50 3 0.142 slower 1 1.816172e+06 1.816176e+06 4.186
29 regular 2 25 125 69 3 0.243 faster 1 1.816177e+06 1.816181e+06 3.848
29 regular 2 26 126 69 3 0.345 faster 1 1.816182e+06 1.816187e+06 4.744
29 regular 2 27 127 68 3 0.373 faster 1 1.816188e+06 1.816192e+06 4.123
29 regular 2 28 128 52 3 0.152 faster 0 1.816192e+06 1.816197e+06 4.203
29 regular 2 29 129 69 3 0.161 faster 1 1.816198e+06 1.816201e+06 3.984
29 regular 2 30 130 52 3 0.290 faster 0 1.816202e+06 1.816206e+06 3.888
29 regular 2 31 131 51 3 0.462 faster 0 1.816207e+06 1.816212e+06 4.076
29 regular 2 32 132 50 3 0.338 slower 1 1.816212e+06 1.816217e+06 4.174
29 regular 2 33 133 70 3 0.565 faster 1 1.816219e+06 1.816222e+06 3.915
29 regular 2 34 134 51 3 0.170 faster 0 1.816223e+06 1.816228e+06 4.365
29 regular 2 35 135 50 3 0.138 slower 1 1.816229e+06 1.816234e+06 5.018
29 regular 2 36 136 70 3 0.517 faster 1 1.816236e+06 1.816240e+06 3.818
29 regular 2 37 137 69 3 0.118 slower 0 1.816241e+06 1.816246e+06 5.066
29 regular 2 38 138 70 3 0.406 slower 0 1.816248e+06 1.816253e+06 5.120
29 regular 2 39 139 49 3 0.295 slower 1 1.816254e+06 1.816259e+06 4.515
29 regular 2 40 140 71 3 0.566 faster 1 1.816260e+06 1.816264e+06 3.885
29 regular 2 41 141 50 3 0.355 slower 1 1.816266e+06 1.816269e+06 3.756
29 regular 2 42 142 70 3 0.535 faster 1 1.816271e+06 1.816275e+06 4.050
29 regular 2 43 143 69 3 0.168 faster 1 1.816276e+06 1.816281e+06 5.440
29 regular 2 44 144 51 3 0.484 slower 1 1.816283e+06 1.816287e+06 4.075
29 regular 2 45 145 68 3 0.167 none 2 1.816288e+06 1.816294e+06 5.999
29 regular 2 46 146 52 3 0.336 slower 1 1.816295e+06 1.816299e+06 3.827
29 regular 2 47 147 52 3 0.491 faster 0 1.816300e+06 1.816304e+06 4.047
29 regular 2 48 148 51 3 0.552 slower 1 1.816306e+06 1.816309e+06 3.741
29 regular 2 49 149 68 3 0.330 faster 1 1.816310e+06 1.816314e+06 3.877
29 regular 2 50 150 68 3 0.562 faster 1 1.816316e+06 1.816320e+06 4.174
29 regular 2 51 151 67 3 0.344 slower 0 1.816321e+06 1.816327e+06 5.573
29 regular 2 52 152 52 3 0.552 slower 1 1.816328e+06 1.816333e+06 4.413
29 regular 2 53 153 68 3 0.331 none 2 1.816334e+06 1.816340e+06 5.999
29 regular 2 54 154 68 3 0.336 faster 1 1.816341e+06 1.816345e+06 4.023
29 regular 2 55 155 67 3 0.114 slower 0 1.816346e+06 1.816351e+06 4.364
29 regular 2 56 156 52 3 0.172 faster 0 1.816352e+06 1.816356e+06 4.427
29 regular 2 57 157 51 3 0.321 slower 1 1.816357e+06 1.816361e+06 3.831
29 regular 2 58 158 51 3 0.407 slower 1 1.816363e+06 1.816367e+06 4.093
29 regular 2 59 159 68 3 0.575 faster 1 1.816368e+06 1.816372e+06 4.330
29 regular 2 60 160 68 3 0.350 faster 1 1.816373e+06 1.816377e+06 4.029
29 regular 2 61 161 53 3 0.423 slower 1 1.816379e+06 1.816382e+06 3.771
29 regular 2 62 162 53 3 0.514 faster 0 1.816384e+06 1.816388e+06 4.316
29 regular 2 63 163 68 3 0.526 faster 1 1.816390e+06 1.816394e+06 4.100
29 regular 2 64 164 67 3 0.319 faster 1 1.816395e+06 1.816399e+06 4.587
29 regular 2 65 165 53 3 0.205 slower 1 1.816400e+06 1.816404e+06 4.104
29 regular 2 66 166 54 3 0.114 faster 0 1.816405e+06 1.816409e+06 3.932
29 regular 2 67 167 53 3 0.537 faster 0 1.816410e+06 1.816414e+06 3.884
29 regular 2 68 168 52 3 0.339 slower 1 1.816415e+06 1.816419e+06 4.421
29 regular 2 69 169 52 3 0.594 slower 1 1.816421e+06 1.816425e+06 4.030
29 regular 2 70 170 67 3 0.145 faster 1 1.816426e+06 1.816430e+06 3.820
29 regular 2 71 171 67 3 0.463 slower 0 1.816432e+06 1.816436e+06 4.108
29 regular 2 72 172 52 3 0.166 slower 1 1.816437e+06 1.816441e+06 4.125
29 regular 2 73 173 53 3 0.512 faster 0 1.816442e+06 1.816447e+06 4.173
29 regular 2 74 174 68 3 0.186 faster 1 1.816447e+06 1.816451e+06 3.995
29 regular 2 75 175 68 3 0.298 slower 0 1.816452e+06 1.816456e+06 4.037
29 regular 2 76 176 69 3 0.436 faster 1 1.816458e+06 1.816462e+06 4.114
29 regular 2 77 177 52 3 0.367 slower 1 1.816463e+06 1.816467e+06 4.197
29 regular 2 78 178 52 3 0.198 slower 1 1.816468e+06 1.816472e+06 4.241
29 regular 2 79 179 53 3 0.192 faster 0 1.816474e+06 1.816478e+06 3.795
29 regular 2 80 180 68 3 0.321 slower 0 1.816479e+06 1.816483e+06 4.404
29 regular 2 81 181 51 3 0.184 faster 0 1.816485e+06 1.816489e+06 4.353
29 regular 2 82 182 50 3 0.144 slower 1 1.816491e+06 1.816495e+06 4.407
29 regular 2 83 183 50 3 0.414 faster 0 1.816497e+06 1.816501e+06 3.709
29 regular 2 84 184 49 3 0.406 faster 0 1.816502e+06 1.816506e+06 3.985
29 regular 2 85 185 48 3 0.285 slower 1 1.816507e+06 1.816511e+06 3.755
29 regular 2 86 186 71 3 0.556 faster 1 1.816512e+06 1.816516e+06 3.706
29 regular 2 87 187 49 3 0.377 slower 1 1.816517e+06 1.816521e+06 4.552
29 regular 2 88 188 50 3 0.416 slower 1 1.816523e+06 1.816527e+06 3.760
29 regular 2 89 189 70 3 0.541 faster 1 1.816528e+06 1.816532e+06 3.744
29 regular 2 90 190 69 3 0.527 faster 1 1.816533e+06 1.816537e+06 3.816
29 regular 2 91 191 69 3 0.155 slower 0 1.816538e+06 1.816542e+06 4.064
29 regular 2 92 192 70 3 0.260 faster 1 1.816543e+06 1.816547e+06 3.822
29 regular 2 93 193 69 3 0.191 faster 1 1.816548e+06 1.816552e+06 4.183
29 regular 2 94 194 69 3 0.188 slower 0 1.816553e+06 1.816558e+06 5.025
29 regular 2 95 195 70 3 0.125 slower 0 1.816559e+06 1.816564e+06 4.697
29 regular 2 96 196 71 3 0.514 faster 1 1.816565e+06 1.816569e+06 4.043
29 regular 2 97 197 50 3 0.361 slower 1 1.816570e+06 1.816575e+06 4.397
29 regular 2 98 198 50 3 0.586 slower 1 1.816576e+06 1.816580e+06 4.241
29 regular 2 99 199 69 3 0.215 slower 0 1.816581e+06 1.816585e+06 4.134
29 regular 2 100 200 50 3 0.302 slower 1 1.816587e+06 1.816592e+06 4.863
29 irregular 3 1 201 50 1.500000e+00 0.195 slower 1 1.816745e+06 1.816749e+06 4.102
29 irregular 3 2 202 51 2 0.489 slower 1 1.816750e+06 1.816753e+06 3.144
29 irregular 3 3 203 69 1 0.384 faster 1 1.816755e+06 1.816757e+06 2.312
29 irregular 3 4 204 68 2 0.203 faster 1 1.816758e+06 1.816762e+06 3.703
29 irregular 3 5 205 68 2.500000e+00 0.365 slower 0 1.816766e+06 1.816770e+06 3.962
29 irregular 3 6 206 69 3 0.374 slower 0 1.816771e+06 1.816775e+06 4.394
29 irregular 3 7 207 50 2.500000e+00 0.388 slower 1 1.816776e+06 1.816780e+06 3.371
29 irregular 3 8 208 69 3 0.424 faster 1 1.816781e+06 1.816785e+06 3.952
29 irregular 3 9 209 51 2 0.595 slower 1 1.816786e+06 1.816789e+06 2.972
29 irregular 3 10 210 52 2 0.315 slower 1 1.816790e+06 1.816794e+06 3.658
29 irregular 3 11 211 52 1.500000e+00 0.283 slower 1 1.816795e+06 1.816797e+06 2.516
29 irregular 3 12 212 53 2 0.459 slower 1 1.816798e+06 1.816801e+06 2.973
29 irregular 3 13 213 67 1 0.449 faster 1 1.816802e+06 1.816805e+06 2.471
29 irregular 3 14 214 54 1 0.465 slower 1 1.816806e+06 1.816808e+06 2.174
29 irregular 3 15 215 66 2 0.498 faster 1 1.816809e+06 1.816812e+06 2.940
29 irregular 3 16 216 55 1 0.264 slower 1 1.816813e+06 1.816816e+06 2.425
29 irregular 3 17 217 65 1.500000e+00 0.427 faster 1 1.816817e+06 1.816819e+06 2.321
29 irregular 3 18 218 56 1 0.403 slower 1 1.816820e+06 1.816823e+06 2.621
29 irregular 3 19 219 56 2.500000e+00 0.381 slower 1 1.816824e+06 1.816827e+06 3.524
29 irregular 3 20 220 57 1.500000e+00 0.163 faster 0 1.816828e+06 1.816831e+06 2.570
29 irregular 3 21 221 56 1.500000e+00 0.385 faster 0 1.816832e+06 1.816834e+06 2.528
29 irregular 3 22 222 55 3 0.190 faster 0 1.816835e+06 1.816840e+06 4.423
29 irregular 3 23 223 54 2.500000e+00 0.586 slower 1 1.816841e+06 1.816845e+06 3.486
29 irregular 3 24 224 54 1.500000e+00 0.518 slower 1 1.816846e+06 1.816849e+06 3.099
29 irregular 3 25 225 55 3 0.524 slower 1 1.816850e+06 1.816855e+06 4.243
29 irregular 3 26 226 65 1.500000e+00 0.517 slower 0 1.816856e+06 1.816858e+06 2.521
29 irregular 3 27 227 66 2 0.386 faster 1 1.816860e+06 1.816863e+06 3.490
29 irregular 3 28 228 65 2 0.373 faster 1 1.816865e+06 1.816868e+06 3.264
29 irregular 3 29 229 65 1 0.546 faster 1 1.816869e+06 1.816871e+06 2.142
29 irregular 3 30 230 56 2 0.531 slower 1 1.816872e+06 1.816876e+06 3.032
29 irregular 3 31 231 56 3 0.115 slower 1 1.816876e+06 1.816881e+06 4.288
29 irregular 3 32 232 57 1.500000e+00 0.275 faster 0 1.816882e+06 1.816885e+06 2.660
29 irregular 3 33 233 56 1.500000e+00 0.302 slower 1 1.816886e+06 1.816889e+06 3.062
29 irregular 3 34 234 56 1 0.532 faster 0 1.816890e+06 1.816892e+06 2.136
29 irregular 3 35 235 55 2 0.429 slower 1 1.816893e+06 1.816897e+06 3.614
29 irregular 3 36 236 64 3 0.575 faster 1 1.816898e+06 1.816902e+06 4.050
29 irregular 3 37 237 64 2.500000e+00 0.252 faster 1 1.816903e+06 1.816907e+06 3.862
29 irregular 3 38 238 57 1 0.229 slower 1 1.816908e+06 1.816910e+06 2.006
29 irregular 3 39 239 63 1.500000e+00 0.291 slower 0 1.816911e+06 1.816915e+06 3.652
29 irregular 3 40 240 56 1.500000e+00 0.393 slower 1 1.816916e+06 1.816918e+06 2.859
29 irregular 3 41 241 63 3 0.336 faster 1 1.816919e+06 1.816924e+06 4.250
29 irregular 3 42 242 63 3 0.283 faster 1 1.816925e+06 1.816929e+06 4.254
29 irregular 3 43 243 58 2.500000e+00 0.179 slower 1 1.816930e+06 1.816933e+06 3.342
29 irregular 3 44 244 62 1.500000e+00 0.431 faster 1 1.816934e+06 1.816937e+06 2.879
29 irregular 3 45 245 61 2.500000e+00 0.143 faster 1 1.816938e+06 1.816942e+06 3.943
29 irregular 3 46 246 61 3 0.448 faster 1 1.816943e+06 1.816947e+06 4.091
29 irregular 3 47 247 59 2 0.264 faster 0 1.816948e+06 1.816951e+06 3.135
29 irregular 3 48 248 62 1 0.254 faster 1 1.816953e+06 1.816956e+06 2.471
29 irregular 3 49 249 62 1.500000e+00 0.519 slower 0 1.816958e+06 1.816960e+06 2.431
29 irregular 3 50 250 63 1.500000e+00 0.373 slower 0 1.816961e+06 1.816964e+06 2.632
29 irregular 3 51 251 56 1 0.390 slower 1 1.816965e+06 1.816967e+06 1.893
29 irregular 3 52 252 63 3 0.269 faster 1 1.816968e+06 1.816971e+06 3.750
29 irregular 3 53 253 63 2.500000e+00 0.201 faster 1 1.816973e+06 1.816977e+06 3.319
29 irregular 3 54 254 62 2 0.376 faster 1 1.816978e+06 1.816981e+06 3.372
29 irregular 3 55 255 58 1 0.328 slower 1 1.816982e+06 1.816984e+06 2.256
29 irregular 3 56 256 61 1 0.480 faster 1 1.816985e+06 1.816987e+06 1.988
29 irregular 3 57 257 61 1.500000e+00 0.483 faster 1 1.816989e+06 1.816991e+06 2.342
29 irregular 3 58 258 61 2 0.446 faster 1 1.816993e+06 1.816996e+06 2.825
29 irregular 3 59 259 59 2.500000e+00 0.474 faster 0 1.816997e+06 1.817001e+06 3.787
29 irregular 3 60 260 62 2 0.196 none 2 1.817002e+06 1.817007e+06 5.000
29 irregular 3 61 261 58 1 0.545 slower 1 1.817008e+06 1.817010e+06 2.129
29 irregular 3 62 262 59 1 0.242 slower 1 1.817011e+06 1.817014e+06 2.498
29 irregular 3 63 263 59 1 0.451 faster 0 1.817015e+06 1.817017e+06 2.055
29 irregular 3 64 264 58 2 0.434 slower 1 1.817018e+06 1.817021e+06 2.792
29 irregular 3 65 265 59 2.500000e+00 0.193 slower 1 1.817022e+06 1.817026e+06 3.292
29 irregular 3 66 266 61 2.500000e+00 0.486 faster 1 1.817027e+06 1.817030e+06 3.212
29 irregular 3 67 267 61 2.500000e+00 0.291 faster 1 1.817031e+06 1.817034e+06 3.303
29 irregular 3 68 268 59 2.500000e+00 0.432 faster 0 1.817035e+06 1.817039e+06 3.394
29 irregular 3 69 269 58 3 0.234 slower 1 1.817040e+06 1.817044e+06 4.057
29 irregular 3 70 270 59 3 0.475 faster 0 1.817046e+06 1.817050e+06 3.813
29 irregular 3 71 271 62 1 0.596 faster 1 1.817051e+06 1.817053e+06 2.051
29 irregular 3 72 272 62 2.500000e+00 0.425 faster 1 1.817054e+06 1.817057e+06 3.383
29 irregular 3 73 273 59 2.500000e+00 0.331 faster 0 1.817059e+06 1.817062e+06 3.270
29 irregular 3 74 274 62 1.500000e+00 0.494 faster 1 1.817063e+06 1.817066e+06 2.478
29 irregular 3 75 275 62 2 0.539 faster 1 1.817068e+06 1.817070e+06 2.809
29 irregular 3 76 276 61 3 0.539 faster 1 1.817072e+06 1.817076e+06 3.962
29 irregular 3 77 277 59 3 0.448 faster 0 1.817077e+06 1.817081e+06 3.935
29 irregular 3 78 278 62 3 0.130 faster 1 1.817081e+06 1.817086e+06 4.883
29 irregular 3 79 279 61 1 0.249 faster 1 1.817087e+06 1.817089e+06 2.027
29 irregular 3 80 280 61 3 0.176 faster 1 1.817090e+06 1.817094e+06 4.097
29 irregular 3 81 281 61 2.500000e+00 0.137 slower 0 1.817095e+06 1.817098e+06 3.507
29 irregular 3 82 282 62 1 0.290 slower 0 1.817099e+06 1.817103e+06 3.336
29 irregular 3 83 283 63 2.500000e+00 0.474 faster 1 1.817104e+06 1.817107e+06 3.490
29 irregular 3 84 284 63 1.500000e+00 0.372 faster 1 1.817109e+06 1.817112e+06 2.643
29 irregular 3 85 285 62 2 0.490 faster 1 1.817113e+06 1.817117e+06 4.077
29 irregular 3 86 286 58 2.500000e+00 0.315 slower 1 1.817119e+06 1.817123e+06 3.488
29 irregular 3 87 287 59 2 0.598 slower 1 1.817124e+06 1.817128e+06 3.246
29 irregular 3 88 288 59 2.500000e+00 0.188 faster 0 1.817129e+06 1.817133e+06 3.715
29 irregular 3 89 289 62 1 0.101 faster 1 1.817134e+06 1.817136e+06 2.184
29 irregular 3 90 290 61 1.500000e+00 0.307 faster 1 1.817137e+06 1.817140e+06 3.308
29 irregular 3 91 291 61 2.500000e+00 0.136 slower 0 1.817141e+06 1.817145e+06 3.881
29 irregular 3 92 292 58 3 0.511 slower 1 1.817147e+06 1.817151e+06 4.244
29 irregular 3 93 293 59 2 0.229 faster 0 1.817152e+06 1.817155e+06 2.968
29 irregular 3 94 294 58 3 0.588 slower 1 1.817157e+06 1.817161e+06 4.364
29 irregular 3 95 295 58 1.500000e+00 0.308 faster 0 1.817163e+06 1.817165e+06 2.584
29 irregular 3 96 296 63 2 0.300 faster 1 1.817167e+06 1.817171e+06 4.131
29 irregular 3 97 297 58 3 0.540 slower 1 1.817173e+06 1.817177e+06 4.290
29 irregular 3 98 298 58 1.500000e+00 0.175 faster 0 1.817178e+06 1.817181e+06 3.335
29 irregular 3 99 299 63 1 0.217 faster 1 1.817182e+06 1.817184e+06 2.026
29 irregular 3 100 300 58 3 0.435 faster 0 1.817185e+06 1.817190e+06 4.301
29 regular 4 1 301 63 2.500000e+00 0.124 faster 1 1.817241e+06 1.817245e+06 3.637
29 regular 4 2 302 63 2.500000e+00 0.573 slower 0 1.817246e+06 1.817250e+06 3.518
29 regular 4 3 303 56 2.500000e+00 0.462 faster 0 1.817251e+06 1.817254e+06 3.458
29 regular 4 4 304 65 2.500000e+00 0.402 faster 1 1.817256e+06 1.817259e+06 3.427
29 regular 4 5 305 56 2.500000e+00 0.480 faster 0 1.817260e+06 1.817264e+06 3.544
29 regular 4 6 306 55 2.500000e+00 0.165 slower 1 1.817266e+06 1.817270e+06 3.478
29 regular 4 7 307 65 2.500000e+00 0.535 faster 1 1.817271e+06 1.817274e+06 3.241
29 regular 4 8 308 64 2.500000e+00 0.596 faster 1 1.817276e+06 1.817279e+06 3.615
29 regular 4 9 309 64 2.500000e+00 0.153 faster 1 1.817281e+06 1.817284e+06 3.516
29 regular 4 10 310 63 2.500000e+00 0.440 faster 1 1.817286e+06 1.817289e+06 3.248
29 regular 4 11 311 57 2.500000e+00 0.197 faster 0 1.817290e+06 1.817294e+06 3.918
29 regular 4 12 312 56 2.500000e+00 0.336 faster 0 1.817295e+06 1.817299e+06 4.503
29 regular 4 13 313 55 2.500000e+00 0.591 faster 0 1.817302e+06 1.817306e+06 4.474
29 regular 4 14 314 54 2.500000e+00 0.477 faster 0 1.817308e+06 1.817312e+06 4.051
29 regular 4 15 315 67 2.500000e+00 0.129 faster 1 1.817321e+06 1.817324e+06 3.658
29 regular 4 16 316 54 2.500000e+00 0.295 slower 1 1.817325e+06 1.817329e+06 3.201
29 regular 4 17 317 66 2.500000e+00 0.217 faster 1 1.817330e+06 1.817333e+06 3.325
29 regular 4 18 318 65 2.500000e+00 0.345 faster 1 1.817335e+06 1.817339e+06 3.665
29 regular 4 19 319 55 2.500000e+00 0.199 faster 0 1.817341e+06 1.817345e+06 4.121
29 regular 4 20 320 66 2.500000e+00 0.257 faster 1 1.817347e+06 1.817352e+06 4.157
29 regular 4 21 321 65 2.500000e+00 0.579 slower 0 1.817363e+06 1.817367e+06 3.688
29 regular 4 22 322 54 2.500000e+00 0.240 faster 0 1.817369e+06 1.817373e+06 4.585
29 regular 4 23 323 67 2.500000e+00 0.119 faster 1 1.817374e+06 1.817377e+06 3.438
29 regular 4 24 324 53 2.500000e+00 0.276 faster 0 1.817378e+06 1.817382e+06 3.775
29 regular 4 25 325 68 2.500000e+00 0.284 faster 1 1.817383e+06 1.817387e+06 3.838
29 regular 4 26 326 53 2.500000e+00 0.489 slower 1 1.817388e+06 1.817392e+06 3.611
29 regular 4 27 327 67 2.500000e+00 0.487 faster 1 1.817393e+06 1.817396e+06 3.524
29 regular 4 28 328 54 2.500000e+00 0.260 faster 0 1.817397e+06 1.817401e+06 3.941
29 regular 4 29 329 67 2.500000e+00 0.535 faster 1 1.817402e+06 1.817406e+06 3.409
29 regular 4 30 330 67 2.500000e+00 0.178 faster 1 1.817406e+06 1.817411e+06 4.046
29 regular 4 31 331 54 2.500000e+00 0.260 faster 0 1.817411e+06 1.817416e+06 4.366
29 regular 4 32 332 67 2.500000e+00 0.225 faster 1 1.817417e+06 1.817420e+06 3.518
29 regular 4 33 333 67 2.500000e+00 0.137 faster 1 1.817423e+06 1.817427e+06 3.670
29 regular 4 34 334 54 2.500000e+00 0.212 none 2 1.817435e+06 1.817440e+06 5.500
29 regular 4 35 335 54 2.500000e+00 0.399 faster 0 1.817441e+06 1.817446e+06 4.517
29 regular 4 36 336 53 2.500000e+00 0.533 slower 1 1.817447e+06 1.817451e+06 4.358
29 regular 4 37 337 53 2.500000e+00 0.513 faster 0 1.817453e+06 1.817457e+06 3.584
29 regular 4 38 338 68 2.500000e+00 0.239 faster 1 1.817458e+06 1.817461e+06 3.402
29 regular 4 39 339 53 2.500000e+00 0.404 slower 1 1.817462e+06 1.817466e+06 3.211
29 regular 4 40 340 53 2.500000e+00 0.332 faster 0 1.817467e+06 1.817470e+06 3.933
29 regular 4 41 341 52 2.500000e+00 0.243 faster 0 1.817471e+06 1.817475e+06 3.620
29 regular 4 42 342 51 2.500000e+00 0.186 faster 0 1.817476e+06 1.817480e+06 3.705
29 regular 4 43 343 70 2.500000e+00 0.426 faster 1 1.817481e+06 1.817484e+06 3.406
29 regular 4 44 344 51 2.500000e+00 0.315 faster 0 1.817486e+06 1.817489e+06 3.526
29 regular 4 45 345 70 2.500000e+00 0.570 faster 1 1.817491e+06 1.817494e+06 3.243
29 regular 4 46 346 50 2.500000e+00 0.156 faster 0 1.817495e+06 1.817500e+06 4.339
29 regular 4 47 347 71 2.500000e+00 0.304 faster 1 1.817501e+06 1.817504e+06 3.747
29 regular 4 48 348 70 2.500000e+00 0.554 faster 1 1.817513e+06 1.817517e+06 3.522
29 regular 4 49 349 70 2.500000e+00 0.168 faster 1 1.817518e+06 1.817522e+06 3.696
29 regular 4 50 350 51 2.500000e+00 0.311 slower 1 1.817524e+06 1.817527e+06 3.545
29 regular 4 51 351 51 2.500000e+00 0.275 faster 0 1.817529e+06 1.817532e+06 3.449
29 regular 4 52 352 70 2.500000e+00 0.218 slower 0 1.817533e+06 1.817537e+06 4.225
29 regular 4 53 353 49 2.500000e+00 0.564 slower 1 1.817539e+06 1.817542e+06 3.925
29 regular 4 54 354 50 2.500000e+00 0.286 slower 1 1.817543e+06 1.817547e+06 3.404
29 regular 4 55 355 70 2.500000e+00 0.378 faster 1 1.817548e+06 1.817551e+06 3.225
29 regular 4 56 356 51 2.500000e+00 0.538 faster 0 1.817552e+06 1.817556e+06 3.820
29 regular 4 57 357 70 2.500000e+00 0.540 faster 1 1.817558e+06 1.817561e+06 3.219
29 regular 4 58 358 70 2.500000e+00 0.154 faster 1 1.817563e+06 1.817566e+06 3.267
29 regular 4 59 359 69 2.500000e+00 0.208 faster 1 1.817568e+06 1.817571e+06 3.234
29 regular 4 60 360 51 2.500000e+00 0.392 slower 1 1.817572e+06 1.817576e+06 3.685
29 regular 4 61 361 68 2.500000e+00 0.547 faster 1 1.817580e+06 1.817583e+06 3.312
29 regular 4 62 362 68 2.500000e+00 0.579 slower 0 1.817584e+06 1.817588e+06 3.847
29 regular 4 63 363 69 2.500000e+00 0.105 faster 1 1.817589e+06 1.817593e+06 4.185
29 regular 4 64 364 68 2.500000e+00 0.201 faster 1 1.817601e+06 1.817605e+06 4.003
29 regular 4 65 365 68 2.500000e+00 0.214 faster 1 1.817606e+06 1.817609e+06 3.465
29 regular 4 66 366 67 2.500000e+00 0.494 faster 1 1.817611e+06 1.817615e+06 3.753
29 regular 4 67 367 67 2.500000e+00 0.499 faster 1 1.817616e+06 1.817619e+06 3.421
29 regular 4 68 368 66 2.500000e+00 0.320 faster 1 1.817621e+06 1.817624e+06 3.641
29 regular 4 69 369 54 2.500000e+00 0.109 slower 1 1.817626e+06 1.817629e+06 3.512
29 regular 4 70 370 65 2.500000e+00 0.276 slower 0 1.817630e+06 1.817634e+06 3.638
29 regular 4 71 371 54 2.500000e+00 0.162 slower 1 1.817635e+06 1.817638e+06 3.402
29 regular 4 72 372 54 2.500000e+00 0.199 slower 1 1.817639e+06 1.817642e+06 3.472
29 regular 4 73 373 55 2.500000e+00 0.214 faster 0 1.817644e+06 1.817647e+06 3.378
29 regular 4 74 374 54 2.500000e+00 0.411 slower 1 1.817648e+06 1.817652e+06 4.091
29 regular 4 75 375 54 2.500000e+00 0.420 slower 1 1.817653e+06 1.817657e+06 4.069
29 regular 4 76 376 55 2.500000e+00 0.283 faster 0 1.817658e+06 1.817662e+06 3.514
29 regular 4 77 377 54 2.500000e+00 0.424 faster 0 1.817663e+06 1.817667e+06 3.422
29 regular 4 78 378 53 2.500000e+00 0.396 faster 0 1.817668e+06 1.817671e+06 3.579
29 regular 4 79 379 52 2.500000e+00 0.255 slower 1 1.817672e+06 1.817676e+06 3.728
29 regular 4 80 380 52 2.500000e+00 0.468 slower 1 1.817677e+06 1.817681e+06 3.894
29 regular 4 81 381 53 2.500000e+00 0.520 none 2 1.817682e+06 1.817688e+06 5.500
29 regular 4 82 382 67 2.500000e+00 0.382 slower 0 1.817689e+06 1.817693e+06 3.945
29 regular 4 83 383 68 2.500000e+00 0.572 faster 1 1.817694e+06 1.817698e+06 3.799
29 regular 4 84 384 68 2.500000e+00 0.461 faster 1 1.817699e+06 1.817702e+06 3.452
29 regular 4 85 385 53 2.500000e+00 0.402 slower 1 1.817704e+06 1.817707e+06 3.624
29 regular 4 86 386 53 2.500000e+00 0.288 none 2 1.817708e+06 1.817714e+06 5.499
29 regular 4 87 387 53 2.500000e+00 0.115 slower 1 1.817714e+06 1.817718e+06 3.519
29 regular 4 88 388 54 2.500000e+00 0.135 faster 0 1.817719e+06 1.817723e+06 3.805
29 regular 4 89 389 67 2.500000e+00 0.562 faster 1 1.817724e+06 1.817728e+06 3.424
29 regular 4 90 390 67 2.500000e+00 0.328 faster 1 1.817729e+06 1.817732e+06 3.414
29 regular 4 91 391 54 2.500000e+00 0.528 faster 0 1.817734e+06 1.817737e+06 3.515
29 regular 4 92 392 53 2.500000e+00 0.401 faster 0 1.817739e+06 1.817742e+06 3.630
29 regular 4 93 393 68 2.500000e+00 0.533 faster 1 1.817743e+06 1.817747e+06 3.510
29 regular 4 94 394 68 2.500000e+00 0.113 faster 1 1.817748e+06 1.817753e+06 4.994
29 regular 4 95 395 67 2.500000e+00 0.590 faster 1 1.817754e+06 1.817758e+06 3.845
29 regular 4 96 396 53 2.500000e+00 0.549 slower 1 1.817760e+06 1.817764e+06 3.331
29 regular 4 97 397 54 2.500000e+00 0.347 faster 0 1.817765e+06 1.817768e+06 3.532
29 regular 4 98 398 67 2.500000e+00 0.209 faster 1 1.817770e+06 1.817773e+06 3.452
29 regular 4 99 399 67 2.500000e+00 0.581 faster 1 1.817774e+06 1.817778e+06 3.399
29 regular 4 100 400 66 2.500000e+00 0.329 faster 1 1.817779e+06 1.817782e+06 3.244
29 irregular 5 1 401 66 2.500000e+00 0.413 faster 1 1.817920e+06 1.817924e+06 3.924
29 irregular 5 2 402 65 1 0.338 faster 1 1.817925e+06 1.817927e+06 2.272
29 irregular 5 3 403 65 1.500000e+00 0.214 faster 1 1.817928e+06 1.817932e+06 3.493
29 irregular 5 4 404 64 2 0.196 faster 1 1.817932e+06 1.817936e+06 3.024
29 irregular 5 5 405 56 3 0.493 slower 1 1.817937e+06 1.817941e+06 4.223
29 irregular 5 6 406 57 1 0.430 slower 1 1.817942e+06 1.817944e+06 1.852
29 irregular 5 7 407 63 3 0.508 slower 0 1.817945e+06 1.817950e+06 4.544
29 irregular 5 8 408 56 1.500000e+00 0.497 faster 0 1.817951e+06 1.817953e+06 2.545
29 irregular 5 9 409 55 1.500000e+00 0.424 slower 1 1.817954e+06 1.817957e+06 2.448
29 irregular 5 10 410 64 1 0.487 slower 0 1.817958e+06 1.817960e+06 1.929
29 irregular 5 11 411 55 2 0.379 slower 1 1.817961e+06 1.817964e+06 2.981
29 irregular 5 12 412 65 1 0.366 faster 1 1.817966e+06 1.817969e+06 3.661
29 irregular 5 13 413 56 1.500000e+00 0.364 slower 1 1.817970e+06 1.817973e+06 2.783
29 irregular 5 14 414 64 2 0.268 slower 0 1.817974e+06 1.817977e+06 3.295
29 irregular 5 15 415 65 2 0.490 faster 1 1.817978e+06 1.817982e+06 3.498
29 irregular 5 16 416 56 2 0.223 slower 1 1.817983e+06 1.817988e+06 4.612
29 irregular 5 17 417 64 1 0.557 faster 1 1.817989e+06 1.817992e+06 2.983
29 irregular 5 18 418 63 1.500000e+00 0.460 slower 0 1.817997e+06 1.818000e+06 2.960
29 irregular 5 19 419 64 2 0.183 slower 0 1.818001e+06 1.818004e+06 3.382
29 irregular 5 20 420 65 2 0.259 faster 1 1.818005e+06 1.818008e+06 2.874
29 irregular 5 21 421 55 1 0.563 slower 1 1.818009e+06 1.818011e+06 1.919
29 irregular 5 22 422 56 2.500000e+00 0.465 slower 1 1.818012e+06 1.818016e+06 3.750
29 irregular 5 23 423 56 1.500000e+00 0.321 slower 1 1.818017e+06 1.818020e+06 2.646
29 irregular 5 24 424 63 3 0.418 faster 1 1.818021e+06 1.818025e+06 3.879
29 irregular 5 25 425 57 3 0.329 slower 1 1.818026e+06 1.818029e+06 3.864
29 irregular 5 26 426 58 3 0.243 faster 0 1.818030e+06 1.818035e+06 4.934
29 irregular 5 27 427 57 2.500000e+00 0.559 slower 1 1.818037e+06 1.818041e+06 4.029
29 irregular 5 28 428 57 2.500000e+00 0.514 slower 1 1.818043e+06 1.818047e+06 4.208
29 irregular 5 29 429 58 2 0.580 faster 0 1.818048e+06 1.818052e+06 3.444
29 irregular 5 30 430 57 1.500000e+00 0.200 slower 1 1.818053e+06 1.818055e+06 2.569
29 irregular 5 31 431 63 3 0.193 faster 1 1.818056e+06 1.818060e+06 4.170
29 irregular 5 32 432 62 1 0.435 faster 1 1.818062e+06 1.818065e+06 2.938
29 irregular 5 33 433 62 2.500000e+00 0.253 slower 0 1.818067e+06 1.818071e+06 3.919
29 irregular 5 34 434 57 1 0.547 slower 1 1.818076e+06 1.818079e+06 2.704
29 irregular 5 35 435 62 3 0.318 faster 1 1.818081e+06 1.818085e+06 3.896
29 irregular 5 36 436 62 1.500000e+00 0.120 faster 1 1.818087e+06 1.818089e+06 2.301
29 irregular 5 37 437 61 2.500000e+00 0.250 slower 0 1.818090e+06 1.818094e+06 3.804
29 irregular 5 38 438 62 2.500000e+00 0.214 none 2 1.818095e+06 1.818100e+06 5.499
29 irregular 5 39 439 62 2 0.233 faster 1 1.818101e+06 1.818104e+06 2.924
29 irregular 5 40 440 58 3 0.177 slower 1 1.818105e+06 1.818109e+06 3.808
29 irregular 5 41 441 59 1.500000e+00 0.515 slower 1 1.818110e+06 1.818113e+06 2.224
29 irregular 5 42 442 61 1 0.147 slower 0 1.818115e+06 1.818117e+06 2.102
29 irregular 5 43 443 62 1.500000e+00 0.195 faster 1 1.818118e+06 1.818121e+06 2.358
29 irregular 5 44 444 59 1.500000e+00 0.160 slower 1 1.818125e+06 1.818127e+06 2.622
29 irregular 5 45 445 59 3 0.251 faster 0 1.818132e+06 1.818136e+06 4.111
29 irregular 5 46 446 62 1.500000e+00 0.286 faster 1 1.818138e+06 1.818140e+06 2.383
29 irregular 5 47 447 59 1.500000e+00 0.423 faster 0 1.818141e+06 1.818144e+06 2.356
29 irregular 5 48 448 58 1 0.302 faster 0 1.818145e+06 1.818146e+06 1.724
29 irregular 5 49 449 57 2 0.158 faster 0 1.818147e+06 1.818150e+06 2.837
29 irregular 5 50 450 56 2.500000e+00 0.161 slower 1 1.818151e+06 1.818154e+06 3.278
29 irregular 5 51 451 56 2.500000e+00 0.364 slower 1 1.818155e+06 1.818158e+06 3.128
29 irregular 5 52 452 63 3 0.398 faster 1 1.818159e+06 1.818163e+06 3.777
29 irregular 5 53 453 63 2.500000e+00 0.398 slower 0 1.818165e+06 1.818169e+06 3.863
29 irregular 5 54 454 64 2 0.112 faster 1 1.818171e+06 1.818173e+06 2.647
29 irregular 5 55 455 57 1 0.289 slower 1 1.818174e+06 1.818176e+06 2.150
29 irregular 5 56 456 63 2.500000e+00 0.456 faster 1 1.818178e+06 1.818181e+06 3.169
29 irregular 5 57 457 62 3 0.338 slower 0 1.818182e+06 1.818186e+06 4.619
29 irregular 5 58 458 57 1 0.214 slower 1 1.818187e+06 1.818189e+06 1.813
29 irregular 5 59 459 57 2 0.255 slower 1 1.818190e+06 1.818193e+06 2.945
29 irregular 5 60 460 58 1 0.547 slower 1 1.818194e+06 1.818197e+06 2.357
29 irregular 5 61 461 58 2 0.487 slower 1 1.818198e+06 1.818200e+06 2.772
29 irregular 5 62 462 59 2.500000e+00 0.338 slower 1 1.818202e+06 1.818206e+06 3.392
29 irregular 5 63 463 61 2.500000e+00 0.495 faster 1 1.818211e+06 1.818214e+06 3.106
29 irregular 5 64 464 59 1.500000e+00 0.194 slower 1 1.818216e+06 1.818218e+06 2.481
29 irregular 5 65 465 59 2.500000e+00 0.429 slower 1 1.818220e+06 1.818223e+06 3.326
29 irregular 5 66 466 61 2 0.598 faster 1 1.818224e+06 1.818227e+06 2.997
29 irregular 5 67 467 61 1 0.187 faster 1 1.818228e+06 1.818230e+06 2.033
29 irregular 5 68 468 61 2 0.399 faster 1 1.818231e+06 1.818234e+06 2.745
29 irregular 5 69 469 61 3 0.545 slower 0 1.818236e+06 1.818240e+06 3.950
29 irregular 5 70 470 62 2 0.215 faster 1 1.818241e+06 1.818244e+06 3.890
29 irregular 5 71 471 59 2.500000e+00 0.547 slower 1 1.818246e+06 1.818249e+06 3.281
29 irregular 5 72 472 61 1.500000e+00 0.540 slower 0 1.818250e+06 1.818253e+06 2.782
29 irregular 5 73 473 62 1 0.357 faster 1 1.818254e+06 1.818256e+06 2.150
29 irregular 5 74 474 59 3 0.367 slower 1 1.818257e+06 1.818261e+06 3.827
29 irregular 5 75 475 61 3 0.110 slower 0 1.818262e+06 1.818266e+06 4.015
29 irregular 5 76 476 58 2 0.541 slower 1 1.818267e+06 1.818270e+06 3.186
29 irregular 5 77 477 59 2.500000e+00 0.540 slower 1 1.818272e+06 1.818275e+06 3.681
29 irregular 5 78 478 59 1 0.147 faster 0 1.818276e+06 1.818278e+06 2.003
29 irregular 5 79 479 62 1 0.257 faster 1 1.818279e+06 1.818281e+06 1.961
29 irregular 5 80 480 61 2.500000e+00 0.479 slower 0 1.818283e+06 1.818287e+06 3.916
29 irregular 5 81 481 62 2.500000e+00 0.428 faster 1 1.818288e+06 1.818292e+06 3.387
29 irregular 5 82 482 58 3 0.134 slower 1 1.818293e+06 1.818297e+06 4.056
29 irregular 5 83 483 61 3 0.557 faster 1 1.818298e+06 1.818302e+06 3.953
29 irregular 5 84 484 61 1.500000e+00 0.177 faster 1 1.818303e+06 1.818306e+06 2.551
29 irregular 5 85 485 59 3 0.429 slower 1 1.818307e+06 1.818311e+06 3.715
29 irregular 5 86 486 59 2 0.596 faster 0 1.818312e+06 1.818315e+06 2.892
29 irregular 5 87 487 58 2 0.111 slower 1 1.818315e+06 1.818319e+06 3.048
29 irregular 5 88 488 61 3 0.491 faster 1 1.818320e+06 1.818323e+06 3.743
29 irregular 5 89 489 59 2 0.111 faster 0 1.818324e+06 1.818327e+06 3.028
29 irregular 5 90 490 58 2.500000e+00 0.443 slower 1 1.818329e+06 1.818332e+06 3.360
29 irregular 5 91 491 59 3 0.509 slower 1 1.818333e+06 1.818337e+06 3.963
29 irregular 5 92 492 61 1.500000e+00 0.175 slower 0 1.818338e+06 1.818341e+06 2.368
29 irregular 5 93 493 62 1.500000e+00 0.450 faster 1 1.818343e+06 1.818345e+06 2.326
29 irregular 5 94 494 59 3 0.115 slower 1 1.818346e+06 1.818350e+06 4.386
29 irregular 5 95 495 59 1 0.155 faster 0 1.818351e+06 1.818353e+06 1.936
29 irregular 5 96 496 62 1.500000e+00 0.150 faster 1 1.818354e+06 1.818356e+06 2.454
29 irregular 5 97 497 61 2.500000e+00 0.206 slower 0 1.818357e+06 1.818361e+06 3.449
29 irregular 5 98 498 62 1 0.402 faster 1 1.818362e+06 1.818364e+06 1.784
29 irregular 5 99 499 58 1.500000e+00 0.484 slower 1 1.818365e+06 1.818367e+06 2.333
29 irregular 5 100 500 59 1 0.408 slower 1 1.818368e+06 1.818370e+06 1.952
29 regular 6 1 501 67 1.500000e+00 0.434 faster 1 1.902386e+06 1.902388e+06 2.476
29 regular 6 2 502 53 1.500000e+00 0.267 slower 1 1.902390e+06 1.902392e+06 2.454
29 regular 6 3 503 55 1.500000e+00 0.217 faster 0 1.902393e+06 1.902395e+06 2.152
29 regular 6 4 504 53 1.500000e+00 0.198 faster 0 1.902397e+06 1.902400e+06 2.835
29 regular 6 5 505 51 1.500000e+00 0.575 slower 1 1.902401e+06 1.902404e+06 2.412
29 regular 6 6 506 51 1.500000e+00 0.207 faster 0 1.902405e+06 1.902407e+06 2.297
29 regular 6 7 507 49 1.500000e+00 0.106 slower 1 1.902408e+06 1.902410e+06 2.621
29 regular 6 8 508 69 1.500000e+00 0.146 faster 1 1.902411e+06 1.902413e+06 2.192
29 regular 6 9 509 69 1.500000e+00 0.584 faster 1 1.902414e+06 1.902417e+06 2.116
29 regular 6 10 510 53 1.500000e+00 0.316 slower 1 1.902418e+06 1.902421e+06 2.671
29 regular 6 11 511 53 1.500000e+00 0.391 faster 0 1.902422e+06 1.902424e+06 2.489
29 regular 6 12 512 69 1.500000e+00 0.119 faster 1 1.902425e+06 1.902428e+06 3.453
29 regular 6 13 513 67 1.500000e+00 0.596 faster 1 1.902430e+06 1.902432e+06 2.357
29 regular 6 14 514 67 1.500000e+00 0.441 slower 0 1.902434e+06 1.902436e+06 2.706
29 regular 6 15 515 52 1.500000e+00 0.161 faster 0 1.902438e+06 1.902441e+06 3.094
29 regular 6 16 516 69 1.500000e+00 0.515 faster 1 1.902442e+06 1.902445e+06 2.869
29 regular 6 17 517 52 1.500000e+00 0.300 faster 0 1.902446e+06 1.902449e+06 3.163
29 regular 6 18 518 69 1.500000e+00 0.595 faster 1 1.902451e+06 1.902453e+06 2.368
29 regular 6 19 519 51 1.500000e+00 0.566 faster 0 1.902454e+06 1.902457e+06 2.479
29 regular 6 20 520 70 1.500000e+00 0.344 faster 1 1.902458e+06 1.902461e+06 2.522
29 regular 6 21 521 69 1.500000e+00 0.585 slower 0 1.902462e+06 1.902464e+06 2.499
29 regular 6 22 522 70 1.500000e+00 0.267 faster 1 1.902466e+06 1.902468e+06 2.260
29 regular 6 23 523 50 1.500000e+00 0.241 slower 1 1.902469e+06 1.902471e+06 2.320
29 regular 6 24 524 51 1.500000e+00 0.505 faster 0 1.902472e+06 1.902475e+06 2.498
29 regular 6 25 525 70 1.500000e+00 0.219 faster 1 1.902476e+06 1.902479e+06 2.911
29 regular 6 26 526 70 1.500000e+00 0.297 slower 0 1.902480e+06 1.902483e+06 3.048
29 regular 6 27 527 71 1.500000e+00 0.139 faster 1 1.902484e+06 1.902486e+06 2.525
29 regular 6 28 528 70 1.500000e+00 0.186 slower 0 1.902487e+06 1.902491e+06 3.878
29 regular 6 29 529 49 1.500000e+00 0.118 slower 1 1.902492e+06 1.902494e+06 2.203
29 regular 6 30 530 49 1.500000e+00 0.326 slower 1 1.902495e+06 1.902498e+06 2.587
29 regular 6 31 531 50 1.500000e+00 0.336 slower 1 1.902499e+06 1.902501e+06 2.683
29 regular 6 32 532 50 1.500000e+00 0.124 faster 0 1.902503e+06 1.902505e+06 2.409
29 regular 6 33 533 49 1.500000e+00 0.161 slower 1 1.902506e+06 1.902508e+06 2.541
29 regular 6 34 534 70 1.500000e+00 0.287 faster 1 1.902509e+06 1.902512e+06 2.330
29 regular 6 35 535 50 1.500000e+00 0.584 slower 1 1.902513e+06 1.902516e+06 2.203
29 regular 6 36 536 51 1.500000e+00 0.401 slower 1 1.902517e+06 1.902520e+06 3.486
29 regular 6 37 537 51 1.500000e+00 0.484 faster 0 1.902522e+06 1.902524e+06 2.376
29 regular 6 38 538 50 1.500000e+00 0.161 slower 1 1.902525e+06 1.902527e+06 2.367
29 regular 6 39 539 69 1.500000e+00 0.131 faster 1 1.902528e+06 1.902530e+06 2.338
29 regular 6 40 540 69 1.500000e+00 0.580 faster 1 1.902532e+06 1.902534e+06 2.271
29 regular 6 41 541 52 1.500000e+00 0.381 faster 0 1.902535e+06 1.902537e+06 2.557
29 regular 6 42 542 69 1.500000e+00 0.311 faster 1 1.902539e+06 1.902542e+06 2.629
29 regular 6 43 543 69 1.500000e+00 0.146 slower 0 1.902543e+06 1.902546e+06 2.323
29 regular 6 44 544 50 1.500000e+00 0.525 faster 0 1.902547e+06 1.902550e+06 2.711
29 regular 6 45 545 71 1.500000e+00 0.239 slower 0 1.902551e+06 1.902554e+06 2.547
29 regular 6 46 546 72 1.500000e+00 0.576 faster 1 1.902555e+06 1.902557e+06 2.217
29 regular 6 47 547 71 1.500000e+00 0.117 faster 1 1.902558e+06 1.902561e+06 2.732
29 regular 6 48 548 49 1.500000e+00 0.533 slower 1 1.902562e+06 1.902565e+06 2.578
29 regular 6 49 549 50 1.500000e+00 0.517 faster 0 1.902566e+06 1.902568e+06 2.462
29 regular 6 50 550 49 1.500000e+00 0.263 slower 1 1.902569e+06 1.902572e+06 2.411
29 regular 6 51 551 49 1.500000e+00 0.209 faster 0 1.902572e+06 1.902575e+06 2.303
29 regular 6 52 552 72 1.500000e+00 0.526 faster 1 1.902576e+06 1.902578e+06 2.139
29 regular 6 53 553 71 1.500000e+00 0.318 faster 1 1.902579e+06 1.902582e+06 2.529
29 regular 6 54 554 71 1.500000e+00 0.217 faster 1 1.902582e+06 1.902585e+06 2.396
29 regular 6 55 555 50 1.500000e+00 0.389 faster 0 1.902586e+06 1.902589e+06 3.377
29 regular 6 56 556 71 1.500000e+00 0.292 faster 1 1.902590e+06 1.902592e+06 2.296
29 regular 6 57 557 71 1.500000e+00 0.600 faster 1 1.902594e+06 1.902596e+06 2.500
29 regular 6 58 558 70 1.500000e+00 0.227 faster 1 1.902598e+06 1.902600e+06 2.446
29 regular 6 59 559 70 1.500000e+00 0.439 slower 0 1.902601e+06 1.902604e+06 2.264
29 regular 6 60 560 49 1.500000e+00 0.358 slower 1 1.902605e+06 1.902607e+06 2.254
29 regular 6 61 561 70 1.500000e+00 0.573 slower 0 1.902608e+06 1.902610e+06 2.234
29 regular 6 62 562 49 1.500000e+00 0.202 slower 1 1.902611e+06 1.902613e+06 2.357
29 regular 6 63 563 71 1.500000e+00 0.450 faster 1 1.902615e+06 1.902617e+06 2.161
29 regular 6 64 564 70 1.500000e+00 0.326 slower 0 1.902618e+06 1.902620e+06 2.223
29 regular 6 65 565 49 1.500000e+00 0.368 slower 1 1.902621e+06 1.902624e+06 2.234
29 regular 6 66 566 71 1.500000e+00 0.258 slower 0 1.902625e+06 1.902627e+06 2.298
29 regular 6 67 567 72 1.500000e+00 0.204 slower 0 1.902629e+06 1.902631e+06 2.312
29 regular 6 68 568 47 1.500000e+00 0.209 slower 1 1.902632e+06 1.902634e+06 2.153
29 regular 6 69 569 72 1.500000e+00 0.471 faster 1 1.902635e+06 1.902637e+06 2.227
29 regular 6 70 570 48 1.500000e+00 0.150 slower 1 1.902638e+06 1.902640e+06 2.100
29 regular 6 71 571 49 1.500000e+00 0.262 slower 1 1.902641e+06 1.902643e+06 2.361
29 regular 6 72 572 49 1.500000e+00 0.321 faster 0 1.902644e+06 1.902647e+06 2.710
29 regular 6 73 573 48 1.500000e+00 0.271 slower 1 1.902649e+06 1.902652e+06 2.111
29 regular 6 74 574 71 1.500000e+00 0.442 faster 1 1.902653e+06 1.902655e+06 2.353
29 regular 6 75 575 71 1.500000e+00 0.413 faster 1 1.902658e+06 1.902660e+06 2.535
29 regular 6 76 576 50 1.500000e+00 0.474 faster 0 1.902661e+06 1.902664e+06 2.629
29 regular 6 77 577 49 1.500000e+00 0.553 faster 0 1.902665e+06 1.902668e+06 2.731
29 regular 6 78 578 72 1.500000e+00 0.586 faster 1 1.902669e+06 1.902672e+06 2.676
29 regular 6 79 579 48 1.500000e+00 0.373 faster 0 1.902673e+06 1.902676e+06 2.621
29 regular 6 80 580 47 1.500000e+00 0.384 faster 0 1.902677e+06 1.902680e+06 2.539
29 regular 6 81 581 74 1.500000e+00 0.139 faster 1 1.902680e+06 1.902683e+06 2.354
29 regular 6 82 582 47 1.500000e+00 0.373 faster 0 1.902684e+06 1.902686e+06 2.572
29 regular 6 83 583 74 1.500000e+00 0.568 faster 1 1.902688e+06 1.902691e+06 2.875
29 regular 6 84 584 74 1.500000e+00 0.338 faster 1 1.902692e+06 1.902695e+06 3.171
29 regular 6 85 585 47 1.500000e+00 0.245 slower 1 1.902697e+06 1.902700e+06 2.306
29 regular 6 86 586 73 1.500000e+00 0.143 faster 1 1.902702e+06 1.902704e+06 2.214
29 regular 6 87 587 48 1.500000e+00 0.477 slower 1 1.902705e+06 1.902708e+06 2.204
29 regular 6 88 588 48 1.500000e+00 0.268 slower 1 1.902709e+06 1.902711e+06 2.476
29 regular 6 89 589 49 1.500000e+00 0.436 slower 1 1.902718e+06 1.902721e+06 2.442
29 regular 6 90 590 49 1.500000e+00 0.272 faster 0 1.902721e+06 1.902724e+06 2.694
29 regular 6 91 591 72 1.500000e+00 0.172 faster 1 1.902725e+06 1.902727e+06 2.354
29 regular 6 92 592 71 1.500000e+00 0.251 faster 1 1.902728e+06 1.902731e+06 2.440
29 regular 6 93 593 49 1.500000e+00 0.108 slower 1 1.902732e+06 1.902734e+06 2.531
29 regular 6 94 594 70 1.500000e+00 0.335 faster 1 1.902736e+06 1.902739e+06 2.212
29 regular 6 95 595 70 1.500000e+00 0.296 faster 1 1.902740e+06 1.902743e+06 2.401
29 regular 6 96 596 69 1.500000e+00 0.402 faster 1 1.902744e+06 1.902746e+06 2.293
29 regular 6 97 597 69 1.500000e+00 0.363 faster 1 1.902747e+06 1.902750e+06 2.298
29 regular 6 98 598 68 1.500000e+00 0.302 faster 1 1.902751e+06 1.902754e+06 2.496
29 regular 6 99 599 52 1.500000e+00 0.119 slower 1 1.902754e+06 1.902757e+06 2.500
29 regular 6 100 600 53 1.500000e+00 0.156 faster 0 1.902758e+06 1.902760e+06 2.686
29 irregular 7 1 601 68 1 0.292 faster 1 1.902778e+06 1.902780e+06 1.877
29 irregular 7 2 602 52 2.500000e+00 0.274 slower 1 1.902781e+06 1.902785e+06 3.309
29 irregular 7 3 603 53 3 0.496 slower 1 1.902787e+06 1.902791e+06 4.352
29 irregular 7 4 604 53 2.500000e+00 0.321 slower 1 1.902793e+06 1.902797e+06 4.043
29 irregular 7 5 605 66 3 0.246 faster 1 1.902798e+06 1.902801e+06 3.695
29 irregular 7 6 606 66 3 0.512 slower 0 1.902803e+06 1.902806e+06 3.642
29 irregular 7 7 607 53 2 0.448 faster 0 1.902809e+06 1.902811e+06 2.595
29 irregular 7 8 608 52 2 0.126 faster 0 1.902812e+06 1.902816e+06 3.461
29 irregular 7 9 609 51 1 0.533 slower 1 1.902817e+06 1.902819e+06 1.751
29 irregular 7 10 610 68 2 0.466 faster 1 1.902820e+06 1.902822e+06 2.688
29 irregular 7 11 611 52 2 0.480 faster 0 1.902824e+06 1.902827e+06 3.216
29 irregular 7 12 612 51 1.500000e+00 0.369 faster 0 1.902829e+06 1.902832e+06 2.457
29 irregular 7 13 613 70 2 0.426 faster 1 1.902833e+06 1.902836e+06 3.828
29 irregular 7 14 614 51 1 0.496 faster 0 1.902838e+06 1.902840e+06 2.474
29 irregular 7 15 615 50 1.500000e+00 0.562 slower 1 1.902841e+06 1.902844e+06 2.340
29 irregular 7 16 616 70 3 0.553 faster 1 1.902845e+06 1.902849e+06 3.758
29 irregular 7 17 617 69 2 0.514 faster 1 1.902850e+06 1.902853e+06 2.746
29 irregular 7 18 618 69 1.500000e+00 0.589 faster 1 1.902854e+06 1.902856e+06 2.158
29 irregular 7 19 619 52 2.500000e+00 0.447 faster 0 1.902858e+06 1.902861e+06 3.277
29 irregular 7 20 620 69 2.500000e+00 0.582 faster 1 1.902862e+06 1.902865e+06 3.256
29 irregular 7 21 621 69 1.500000e+00 0.459 faster 1 1.902867e+06 1.902869e+06 2.239
29 irregular 7 22 622 52 2 0.501 slower 1 1.902871e+06 1.902874e+06 3.499
29 irregular 7 23 623 68 1 0.416 faster 1 1.902876e+06 1.902878e+06 2.346
29 irregular 7 24 624 53 2.500000e+00 0.273 faster 0 1.902879e+06 1.902882e+06 3.333
29 irregular 7 25 625 52 3 0.346 faster 0 1.902884e+06 1.902888e+06 3.867
29 irregular 7 26 626 69 2.500000e+00 0.180 faster 1 1.902889e+06 1.902892e+06 3.305
29 irregular 7 27 627 69 1 0.329 faster 1 1.902893e+06 1.902895e+06 1.942
29 irregular 7 28 628 68 1.500000e+00 0.187 faster 1 1.902896e+06 1.902898e+06 2.348
29 irregular 7 29 629 68 3 0.287 faster 1 1.902899e+06 1.902903e+06 3.706
29 irregular 7 30 630 53 1 0.293 faster 0 1.902904e+06 1.902906e+06 2.377
29 irregular 7 31 631 68 2.500000e+00 0.406 faster 1 1.902907e+06 1.902911e+06 3.271
29 irregular 7 32 632 68 3 0.102 faster 1 1.902911e+06 1.902915e+06 3.762
29 irregular 7 33 633 53 2.500000e+00 0.382 faster 0 1.902916e+06 1.902920e+06 3.385
29 irregular 7 34 634 68 2.500000e+00 0.276 faster 1 1.902921e+06 1.902924e+06 3.177
29 irregular 7 35 635 52 1 0.446 slower 1 1.902925e+06 1.902927e+06 1.763
29 irregular 7 36 636 67 1.500000e+00 0.235 faster 1 1.902928e+06 1.902930e+06 2.503
29 irregular 7 37 637 53 2.500000e+00 0.238 faster 0 1.902931e+06 1.902935e+06 3.424
29 irregular 7 38 638 68 1 0.383 slower 0 1.902937e+06 1.902939e+06 2.286
29 irregular 7 39 639 51 3 0.521 faster 0 1.902941e+06 1.902945e+06 4.147
29 irregular 7 40 640 50 1 0.487 slower 1 1.902947e+06 1.902949e+06 1.910
29 irregular 7 41 641 51 2.500000e+00 0.364 slower 1 1.902950e+06 1.902954e+06 3.622
29 irregular 7 42 642 51 1 0.498 faster 0 1.902956e+06 1.902958e+06 1.863
29 irregular 7 43 643 70 2 0.521 faster 1 1.902959e+06 1.902962e+06 2.808
29 irregular 7 44 644 69 3 0.598 faster 1 1.902963e+06 1.902967e+06 4.003
29 irregular 7 45 645 51 1 0.368 faster 0 1.902971e+06 1.902973e+06 2.066
29 irregular 7 46 646 50 2 0.418 slower 1 1.902974e+06 1.902977e+06 2.880
29 irregular 7 47 647 69 1.500000e+00 0.541 faster 1 1.902978e+06 1.902980e+06 2.307
29 irregular 7 48 648 69 1 0.118 faster 1 1.902982e+06 1.902984e+06 1.894
29 irregular 7 49 649 68 1 0.438 slower 0 1.902985e+06 1.902987e+06 1.964
29 irregular 7 50 650 51 1 0.129 slower 1 1.902989e+06 1.902991e+06 2.456
29 irregular 7 51 651 69 3 0.143 faster 1 1.902992e+06 1.902996e+06 3.749
29 irregular 7 52 652 68 3 0.177 faster 1 1.902997e+06 1.903000e+06 3.817
29 irregular 7 53 653 52 1.500000e+00 0.495 slower 1 1.903002e+06 1.903004e+06 2.432
29 irregular 7 54 654 53 1.500000e+00 0.575 faster 0 1.903006e+06 1.903008e+06 2.408
29 irregular 7 55 655 68 2.500000e+00 0.349 faster 1 1.903009e+06 1.903012e+06 3.306
29 irregular 7 56 656 68 1.500000e+00 0.230 slower 0 1.903013e+06 1.903016e+06 2.298
29 irregular 7 57 657 69 3 0.596 faster 1 1.903017e+06 1.903020e+06 3.621
29 irregular 7 58 658 52 1.500000e+00 0.102 faster 0 1.903021e+06 1.903024e+06 2.726
29 irregular 7 59 659 51 1.500000e+00 0.340 slower 1 1.903025e+06 1.903027e+06 2.377
29 irregular 7 60 660 69 2 0.436 faster 1 1.903028e+06 1.903031e+06 2.759
29 irregular 7 61 661 68 1 0.296 faster 1 1.903032e+06 1.903034e+06 1.830
29 irregular 7 62 662 52 2.500000e+00 0.210 slower 1 1.903036e+06 1.903039e+06 3.286
29 irregular 7 63 663 67 2.500000e+00 0.418 faster 1 1.903040e+06 1.903044e+06 3.209
29 irregular 7 64 664 67 2.500000e+00 0.430 faster 1 1.903045e+06 1.903048e+06 3.612
29 irregular 7 65 665 66 2 0.408 faster 1 1.903050e+06 1.903053e+06 3.058
29 irregular 7 66 666 54 2.500000e+00 0.132 slower 1 1.903054e+06 1.903058e+06 3.294
29 irregular 7 67 667 65 2.500000e+00 0.496 faster 1 1.903059e+06 1.903062e+06 3.261
29 irregular 7 68 668 65 1.500000e+00 0.389 faster 1 1.903064e+06 1.903066e+06 2.441
29 irregular 7 69 669 56 3 0.168 faster 0 1.903067e+06 1.903071e+06 4.167
29 irregular 7 70 670 55 1.500000e+00 0.597 slower 1 1.903073e+06 1.903075e+06 2.372
29 irregular 7 71 671 65 1 0.190 faster 1 1.903076e+06 1.903078e+06 1.829
29 irregular 7 72 672 56 3 0.524 slower 1 1.903079e+06 1.903083e+06 4.180
29 irregular 7 73 673 64 2 0.485 faster 1 1.903085e+06 1.903088e+06 3.122
29 irregular 7 74 674 63 2.500000e+00 0.248 faster 1 1.903089e+06 1.903092e+06 3.227
29 irregular 7 75 675 57 1 0.220 faster 0 1.903093e+06 1.903096e+06 3.155
29 irregular 7 76 676 56 2.500000e+00 0.113 faster 0 1.903097e+06 1.903102e+06 4.555
29 irregular 7 77 677 65 1 0.123 slower 0 1.903102e+06 1.903105e+06 2.236
29 irregular 7 78 678 54 2 0.501 faster 0 1.903106e+06 1.903109e+06 2.789
29 irregular 7 79 679 53 3 0.217 faster 0 1.903110e+06 1.903114e+06 3.966
29 irregular 7 80 680 52 3 0.238 slower 1 1.903114e+06 1.903118e+06 3.573
29 irregular 7 81 681 53 1.500000e+00 0.378 none 2 1.903119e+06 1.903124e+06 4.499
29 irregular 7 82 682 53 3 0.130 faster 0 1.903124e+06 1.903128e+06 3.896
29 irregular 7 83 683 52 2 0.196 faster 0 1.903130e+06 1.903133e+06 3.159
29 irregular 7 84 684 51 2 0.519 slower 1 1.903134e+06 1.903137e+06 2.929
29 irregular 7 85 685 69 1.500000e+00 0.346 faster 1 1.903139e+06 1.903141e+06 2.653
29 irregular 7 86 686 68 2 0.579 faster 1 1.903142e+06 1.903145e+06 2.836
29 irregular 7 87 687 52 1 0.111 faster 0 1.903146e+06 1.903148e+06 1.985
29 irregular 7 88 688 69 1.500000e+00 0.584 faster 1 1.903150e+06 1.903153e+06 2.833
29 irregular 7 89 689 68 2 0.379 faster 1 1.903154e+06 1.903157e+06 3.055
29 irregular 7 90 690 52 1.500000e+00 0.123 slower 1 1.903158e+06 1.903160e+06 2.483
29 irregular 7 91 691 67 2 0.397 slower 0 1.903161e+06 1.903164e+06 2.821
29 irregular 7 92 692 52 2 0.527 slower 1 1.903165e+06 1.903168e+06 3.158
29 irregular 7 93 693 52 3 0.179 slower 1 1.903170e+06 1.903174e+06 4.103
29 irregular 7 94 694 53 2 0.335 slower 1 1.903176e+06 1.903180e+06 3.619
29 irregular 7 95 695 67 1.500000e+00 0.274 faster 1 1.903180e+06 1.903183e+06 2.583
29 irregular 7 96 696 54 3 0.231 faster 0 1.903184e+06 1.903188e+06 3.783
29 irregular 7 97 697 67 1 0.420 faster 1 1.903190e+06 1.903192e+06 1.961
29 irregular 7 98 698 53 1.500000e+00 0.341 faster 0 1.903193e+06 1.903195e+06 2.451
29 irregular 7 99 699 68 2.500000e+00 0.507 faster 1 1.903196e+06 1.903200e+06 3.251
29 irregular 7 100 700 67 3 0.148 faster 1 1.903200e+06 1.903204e+06 3.708
29 regular 8 1 701 53 2 0.410 faster 0 1.903566e+06 1.903569e+06 2.947
29 regular 8 2 702 68 2 0.467 faster 1 1.903571e+06 1.903573e+06 2.920
29 regular 8 3 703 53 2 0.540 slower 1 1.903575e+06 1.903578e+06 2.708
29 regular 8 4 704 53 2 0.304 slower 1 1.903584e+06 1.903587e+06 3.460
29 regular 8 5 705 54 2 0.495 faster 0 1.903591e+06 1.903594e+06 3.084
29 regular 8 6 706 67 2 0.221 faster 1 1.903596e+06 1.903599e+06 3.302
29 regular 8 7 707 53 2 0.365 faster 0 1.903600e+06 1.903603e+06 3.113
29 regular 8 8 708 68 2 0.281 faster 1 1.903606e+06 1.903609e+06 2.831
29 regular 8 9 709 53 2 0.579 faster 0 1.903612e+06 1.903615e+06 2.772
29 regular 8 10 710 68 2 0.428 faster 1 1.903618e+06 1.903621e+06 2.952
29 regular 8 11 711 68 2 0.352 faster 1 1.903622e+06 1.903624e+06 2.868
29 regular 8 12 712 67 2 0.439 faster 1 1.903626e+06 1.903629e+06 3.201
29 regular 8 13 713 53 2 0.200 slower 1 1.903631e+06 1.903634e+06 2.826
29 regular 8 14 714 66 2 0.227 slower 0 1.903635e+06 1.903638e+06 2.964
29 regular 8 15 715 67 2 0.368 faster 1 1.903640e+06 1.903643e+06 3.177
29 regular 8 16 716 67 2 0.501 slower 0 1.903644e+06 1.903648e+06 4.032
29 regular 8 17 717 52 2 0.567 faster 0 1.903649e+06 1.903652e+06 2.594
29 regular 8 18 718 51 2 0.342 slower 1 1.903653e+06 1.903656e+06 2.850
29 regular 8 19 719 52 2 0.282 slower 1 1.903657e+06 1.903660e+06 3.335
29 regular 8 20 720 52 2 0.416 faster 0 1.903661e+06 1.903664e+06 3.187
29 regular 8 21 721 51 2 0.154 slower 1 1.903665e+06 1.903668e+06 3.412
29 regular 8 22 722 68 2 0.501 faster 1 1.903670e+06 1.903673e+06 3.476
29 regular 8 23 723 68 2 0.600 faster 1 1.903674e+06 1.903677e+06 2.884
29 regular 8 24 724 53 2 0.596 slower 1 1.903678e+06 1.903681e+06 2.922
29 regular 8 25 725 53 2 0.454 slower 1 1.903682e+06 1.903685e+06 2.846
29 regular 8 26 726 54 2 0.111 slower 1 1.903688e+06 1.903691e+06 2.997
29 regular 8 27 727 66 2 0.336 faster 1 1.903693e+06 1.903696e+06 2.951
29 regular 8 28 728 65 2 0.379 faster 1 1.903697e+06 1.903700e+06 3.160
29 regular 8 29 729 65 2 0.384 faster 1 1.903701e+06 1.903704e+06 3.359
29 regular 8 30 730 56 2 0.586 slower 1 1.903706e+06 1.903709e+06 3.202
29 regular 8 31 731 64 2 0.165 faster 1 1.903711e+06 1.903714e+06 2.852
29 regular 8 32 732 63 2 0.120 faster 1 1.903714e+06 1.903717e+06 2.830
29 regular 8 33 733 63 2 0.174 slower 0 1.903718e+06 1.903721e+06 2.993
29 regular 8 34 734 56 2 0.250 faster 0 1.903722e+06 1.903725e+06 2.952
29 regular 8 35 735 55 2 0.391 faster 0 1.903727e+06 1.903730e+06 3.034
29 regular 8 36 736 66 2 0.574 faster 1 1.903731e+06 1.903735e+06 3.339
29 regular 8 37 737 65 2 0.322 slower 0 1.903736e+06 1.903739e+06 3.437
29 regular 8 38 738 66 2 0.516 faster 1 1.903740e+06 1.903743e+06 2.873
29 regular 8 39 739 66 2 0.238 faster 1 1.903745e+06 1.903748e+06 3.425
29 regular 8 40 740 55 2 0.533 slower 1 1.903750e+06 1.903753e+06 2.984
29 regular 8 41 741 65 2 0.434 slower 0 1.903754e+06 1.903757e+06 3.128
29 regular 8 42 742 54 2 0.291 slower 1 1.903759e+06 1.903763e+06 3.604
29 regular 8 43 743 65 2 0.220 slower 0 1.903764e+06 1.903767e+06 2.931
29 regular 8 44 744 54 2 0.206 faster 0 1.903768e+06 1.903771e+06 3.050
29 regular 8 45 745 67 2 0.275 faster 1 1.903773e+06 1.903775e+06 2.937
29 regular 8 46 746 67 2 0.519 slower 0 1.903777e+06 1.903779e+06 2.737
29 regular 8 47 747 52 2 0.290 faster 0 1.903781e+06 1.903784e+06 3.327
29 regular 8 48 748 51 2 0.101 faster 0 1.903786e+06 1.903789e+06 3.313
29 regular 8 49 749 70 2 0.565 faster 1 1.903791e+06 1.903794e+06 2.912
29 regular 8 50 750 51 2 0.370 faster 0 1.903795e+06 1.903799e+06 3.287
29 regular 8 51 751 50 2 0.347 faster 0 1.903800e+06 1.903804e+06 3.763
29 regular 8 52 752 49 2 0.321 slower 1 1.903805e+06 1.903807e+06 2.566
29 regular 8 53 753 71 2 0.229 faster 1 1.903809e+06 1.903812e+06 2.705
29 regular 8 54 754 50 2 0.383 slower 1 1.903813e+06 1.903816e+06 2.675
29 regular 8 55 755 70 2 0.528 faster 1 1.903817e+06 1.903821e+06 3.217
29 regular 8 56 756 51 2 0.465 faster 0 1.903822e+06 1.903825e+06 3.120
29 regular 8 57 757 70 2 0.378 slower 0 1.903827e+06 1.903830e+06 3.176
29 regular 8 58 758 49 2 0.244 slower 1 1.903833e+06 1.903837e+06 3.449
29 regular 8 59 759 71 2 0.102 slower 0 1.903837e+06 1.903841e+06 3.405
29 regular 8 60 760 48 2 0.465 slower 1 1.903842e+06 1.903845e+06 2.717
29 regular 8 61 761 71 2 0.351 faster 1 1.903847e+06 1.903850e+06 2.697
29 regular 8 62 762 49 2 0.346 slower 1 1.903851e+06 1.903854e+06 2.983
29 regular 8 63 763 50 2 0.272 slower 1 1.903856e+06 1.903859e+06 3.419
29 regular 8 64 764 70 2 0.357 faster 1 1.903863e+06 1.903866e+06 2.745
29 regular 8 65 765 69 2 0.141 faster 1 1.903867e+06 1.903870e+06 2.807
29 regular 8 66 766 51 2 0.130 faster 0 1.903871e+06 1.903875e+06 3.470
29 regular 8 67 767 50 2 0.164 slower 1 1.903875e+06 1.903878e+06 2.770
29 regular 8 68 768 51 2 0.325 slower 1 1.903879e+06 1.903882e+06 2.841
29 regular 8 69 769 69 2 0.176 faster 1 1.903884e+06 1.903887e+06 2.819
29 regular 8 70 770 52 2 0.535 slower 1 1.903890e+06 1.903893e+06 2.649
29 regular 8 71 771 68 2 0.471 slower 0 1.903894e+06 1.903897e+06 2.843
29 regular 8 72 772 51 2 0.426 faster 0 1.903899e+06 1.903903e+06 3.917
29 regular 8 73 773 70 2 0.338 faster 1 1.903905e+06 1.903908e+06 2.869
29 regular 8 74 774 51 2 0.481 slower 1 1.903909e+06 1.903912e+06 2.784
29 regular 8 75 775 51 2 0.378 faster 0 1.903913e+06 1.903916e+06 3.347
29 regular 8 76 776 70 2 0.388 slower 0 1.903917e+06 1.903920e+06 2.724
29 regular 8 77 777 49 2 0.252 slower 1 1.903921e+06 1.903923e+06 2.758
29 regular 8 78 778 70 2 0.549 faster 1 1.903925e+06 1.903927e+06 2.812
29 regular 8 79 779 70 2 0.162 faster 1 1.903928e+06 1.903931e+06 3.185
29 regular 8 80 780 69 2 0.572 faster 1 1.903933e+06 1.903936e+06 3.065
29 regular 8 81 781 69 2 0.500 faster 1 1.903937e+06 1.903940e+06 2.944
29 regular 8 82 782 68 2 0.555 faster 1 1.903941e+06 1.903944e+06 2.784
29 regular 8 83 783 52 2 0.351 slower 1 1.903946e+06 1.903948e+06 2.786
29 regular 8 84 784 53 2 0.575 faster 0 1.903954e+06 1.903957e+06 3.155
29 regular 8 85 785 68 2 0.471 slower 0 1.903958e+06 1.903962e+06 3.165
29 regular 8 86 786 51 2 0.287 slower 1 1.903963e+06 1.903965e+06 2.884
29 regular 8 87 787 51 2 0.154 slower 1 1.903967e+06 1.903970e+06 2.985
29 regular 8 88 788 68 2 0.111 faster 1 1.903970e+06 1.903973e+06 2.868
29 regular 8 89 789 52 2 0.457 slower 1 1.903974e+06 1.903977e+06 2.795
29 regular 8 90 790 67 2 0.230 faster 1 1.903978e+06 1.903981e+06 3.025
29 regular 8 91 791 67 2 0.283 faster 1 1.903983e+06 1.903986e+06 2.879
29 regular 8 92 792 54 2 0.468 slower 1 1.903987e+06 1.903990e+06 2.743
29 regular 8 93 793 54 2 0.333 faster 0 1.903991e+06 1.903994e+06 3.266
29 regular 8 94 794 67 2 0.244 faster 1 1.903995e+06 1.903998e+06 2.945
29 regular 8 95 795 54 2 0.458 slower 1 1.904000e+06 1.904003e+06 2.794
29 regular 8 96 796 66 2 0.360 faster 1 1.904004e+06 1.904007e+06 2.818
29 regular 8 97 797 55 2 0.264 slower 1 1.904008e+06 1.904011e+06 2.918
29 regular 8 98 798 55 2 0.229 slower 1 1.904012e+06 1.904015e+06 3.202
29 regular 8 99 799 64 2 0.193 slower 0 1.904016e+06 1.904019e+06 2.868
29 regular 8 100 800 65 2 0.261 slower 0 1.904020e+06 1.904023e+06 3.548
29 irregular 9 1 801 54 1.500000e+00 0.237 slower 1 1.904107e+06 1.904109e+06 2.678
29 irregular 9 2 802 66 2 0.587 faster 1 1.904111e+06 1.904114e+06 2.795
29 irregular 9 3 803 55 2.500000e+00 0.356 faster 0 1.904116e+06 1.904119e+06 3.404
29 irregular 9 4 804 54 2 0.282 slower 1 1.904120e+06 1.904123e+06 2.873
29 irregular 9 5 805 66 3 0.237 faster 1 1.904124e+06 1.904128e+06 3.753
29 irregular 9 6 806 55 1 0.305 slower 1 1.904131e+06 1.904133e+06 1.903
29 irregular 9 7 807 65 1.500000e+00 0.358 faster 1 1.904134e+06 1.904137e+06 2.811
29 irregular 9 8 808 64 1 0.440 faster 1 1.904139e+06 1.904141e+06 2.569
29 irregular 9 9 809 56 1 0.148 faster 0 1.904143e+06 1.904145e+06 1.994
29 irregular 9 10 810 65 3 0.411 faster 1 1.904147e+06 1.904151e+06 4.215
29 irregular 9 11 811 64 1 0.240 faster 1 1.904153e+06 1.904154e+06 1.930
29 irregular 9 12 812 56 3 0.209 slower 1 1.904155e+06 1.904160e+06 4.190
29 irregular 9 13 813 63 2.500000e+00 0.462 faster 1 1.904161e+06 1.904164e+06 3.376
29 irregular 9 14 814 57 1.500000e+00 0.482 faster 0 1.904165e+06 1.904168e+06 2.883
29 irregular 9 15 815 64 3 0.251 faster 1 1.904170e+06 1.904174e+06 3.876
29 irregular 9 16 816 63 2.500000e+00 0.191 faster 1 1.904175e+06 1.904179e+06 3.578
29 irregular 9 17 817 57 2 0.468 slower 1 1.904180e+06 1.904183e+06 3.125
29 irregular 9 18 818 62 2 0.275 faster 1 1.904186e+06 1.904189e+06 3.099
29 irregular 9 19 819 62 1.500000e+00 0.365 none 2 1.904191e+06 1.904195e+06 4.499
29 irregular 9 20 820 62 3 0.410 faster 1 1.904196e+06 1.904200e+06 4.054
29 irregular 9 21 821 59 3 0.105 slower 1 1.904202e+06 1.904206e+06 3.814
29 irregular 9 22 822 59 2.500000e+00 0.571 slower 1 1.904208e+06 1.904211e+06 3.718
29 irregular 9 23 823 61 2 0.478 faster 1 1.904213e+06 1.904216e+06 2.858
29 irregular 9 24 824 59 1 0.264 faster 0 1.904217e+06 1.904219e+06 1.801
29 irregular 9 25 825 62 2 0.442 faster 1 1.904220e+06 1.904223e+06 2.792
29 irregular 9 26 826 59 2 0.572 faster 0 1.904224e+06 1.904227e+06 3.162
29 irregular 9 27 827 62 1.500000e+00 0.417 faster 1 1.904229e+06 1.904231e+06 2.330
29 irregular 9 28 828 58 2.500000e+00 0.290 slower 1 1.904233e+06 1.904236e+06 3.349
29 irregular 9 29 829 59 2.500000e+00 0.392 slower 1 1.904237e+06 1.904241e+06 3.773
29 irregular 9 30 830 61 1.500000e+00 0.157 faster 1 1.904243e+06 1.904245e+06 2.393
29 irregular 9 31 831 59 2.500000e+00 0.286 faster 0 1.904247e+06 1.904251e+06 3.905
29 irregular 9 32 832 58 3 0.129 faster 0 1.904252e+06 1.904256e+06 3.945
29 irregular 9 33 833 57 3 0.267 slower 1 1.904260e+06 1.904265e+06 4.331
29 irregular 9 34 834 57 2 0.257 slower 1 1.904266e+06 1.904270e+06 3.536
29 irregular 9 35 835 62 1 0.546 faster 1 1.904271e+06 1.904273e+06 1.955
29 irregular 9 36 836 58 1.500000e+00 0.217 slower 1 1.904274e+06 1.904277e+06 2.799
29 irregular 9 37 837 59 1.500000e+00 0.174 faster 0 1.904278e+06 1.904280e+06 2.647
29 irregular 9 38 838 62 1 0.159 faster 1 1.904281e+06 1.904284e+06 2.503
29 irregular 9 39 839 58 1.500000e+00 0.359 faster 0 1.904285e+06 1.904288e+06 3.409
29 irregular 9 40 840 63 2 0.191 slower 0 1.904290e+06 1.904293e+06 3.640
29 irregular 9 41 841 56 1 0.565 slower 1 1.904296e+06 1.904298e+06 2.015
29 irregular 9 42 842 57 1.500000e+00 0.210 faster 0 1.904299e+06 1.904302e+06 3.495
29 irregular 9 43 843 64 3 0.538 faster 1 1.904303e+06 1.904307e+06 3.909
29 irregular 9 44 844 64 3 0.282 faster 1 1.904309e+06 1.904314e+06 4.065
29 irregular 9 45 845 57 1.500000e+00 0.465 faster 0 1.904315e+06 1.904317e+06 2.456
29 irregular 9 46 846 64 2.500000e+00 0.394 faster 1 1.904319e+06 1.904323e+06 3.567
29 irregular 9 47 847 56 1 0.418 slower 1 1.904324e+06 1.904326e+06 1.867
29 irregular 9 48 848 57 2 0.150 faster 0 1.904327e+06 1.904330e+06 3.272
29 irregular 9 49 849 56 1.500000e+00 0.289 slower 1 1.904332e+06 1.904334e+06 2.203
29 irregular 9 50 850 56 1 0.167 slower 1 1.904335e+06 1.904337e+06 1.912
29 irregular 9 51 851 57 1 0.157 slower 1 1.904342e+06 1.904344e+06 1.858
29 irregular 9 52 852 57 1.500000e+00 0.478 slower 1 1.904346e+06 1.904349e+06 2.171
29 irregular 9 53 853 62 1 0.411 faster 1 1.904350e+06 1.904352e+06 1.806
29 irregular 9 54 854 62 3 0.370 faster 1 1.904353e+06 1.904357e+06 3.794
29 irregular 9 55 855 59 2 0.462 faster 0 1.904358e+06 1.904361e+06 3.103
29 irregular 9 56 856 62 2.500000e+00 0.166 slower 0 1.904362e+06 1.904365e+06 3.274
29 irregular 9 57 857 63 3 0.561 faster 1 1.904367e+06 1.904371e+06 3.755
29 irregular 9 58 858 57 2.500000e+00 0.339 faster 0 1.904372e+06 1.904376e+06 3.573
29 irregular 9 59 859 64 2.500000e+00 0.465 faster 1 1.904377e+06 1.904380e+06 3.434
29 irregular 9 60 860 63 1 0.443 slower 0 1.904382e+06 1.904385e+06 2.788
29 irregular 9 61 861 64 1.500000e+00 0.389 faster 1 1.904386e+06 1.904389e+06 2.736
29 irregular 9 62 862 64 1.500000e+00 0.155 slower 0 1.904390e+06 1.904392e+06 2.545
29 irregular 9 63 863 65 2.500000e+00 0.575 faster 1 1.904394e+06 1.904398e+06 3.357
29 irregular 9 64 864 64 1 0.290 slower 0 1.904399e+06 1.904401e+06 2.002
29 irregular 9 65 865 65 2.500000e+00 0.567 slower 0 1.904403e+06 1.904406e+06 3.349
29 irregular 9 66 866 54 1 0.323 slower 1 1.904407e+06 1.904409e+06 1.786
29 irregular 9 67 867 66 1 0.357 faster 1 1.904411e+06 1.904414e+06 2.844
29 irregular 9 68 868 55 3 0.242 slower 1 1.904415e+06 1.904418e+06 3.725
29 irregular 9 69 869 55 2 0.419 slower 1 1.904421e+06 1.904424e+06 2.769
29 irregular 9 70 870 56 3 0.523 slower 1 1.904425e+06 1.904429e+06 3.951
29 irregular 9 71 871 56 2.500000e+00 0.321 faster 0 1.904431e+06 1.904435e+06 3.531
29 irregular 9 72 872 65 1 0.515 faster 1 1.904436e+06 1.904438e+06 1.978
29 irregular 9 73 873 64 3 0.220 faster 1 1.904439e+06 1.904444e+06 4.339
29 irregular 9 74 874 64 2 0.413 faster 1 1.904445e+06 1.904448e+06 2.940
29 irregular 9 75 875 63 2 0.426 faster 1 1.904451e+06 1.904454e+06 3.039
29 irregular 9 76 876 57 1 0.109 slower 1 1.904454e+06 1.904457e+06 2.629
29 irregular 9 77 877 62 1.500000e+00 0.108 faster 1 1.904458e+06 1.904461e+06 2.569
29 irregular 9 78 878 62 1.500000e+00 0.554 faster 1 1.904462e+06 1.904465e+06 2.759
29 irregular 9 79 879 61 2 0.588 faster 1 1.904467e+06 1.904470e+06 3.361
29 irregular 9 80 880 61 2 0.414 faster 1 1.904473e+06 1.904477e+06 3.975
29 irregular 9 81 881 59 2 0.490 slower 1 1.904479e+06 1.904482e+06 3.063
29 irregular 9 82 882 61 1 0.334 faster 1 1.904483e+06 1.904485e+06 2.322
29 irregular 9 83 883 59 3 0.293 slower 1 1.904486e+06 1.904491e+06 4.219
29 irregular 9 84 884 59 3 0.364 slower 1 1.904492e+06 1.904496e+06 3.928
29 irregular 9 85 885 61 1.500000e+00 0.374 slower 0 1.904498e+06 1.904501e+06 2.439
29 irregular 9 86 886 62 3 0.368 faster 1 1.904502e+06 1.904506e+06 4.105
29 irregular 9 87 887 58 2.500000e+00 0.417 slower 1 1.904512e+06 1.904515e+06 3.493
29 irregular 9 88 888 59 2 0.422 faster 0 1.904517e+06 1.904520e+06 2.933
29 irregular 9 89 889 58 1.500000e+00 0.418 slower 1 1.904523e+06 1.904525e+06 2.444
29 irregular 9 90 890 62 2.500000e+00 0.154 faster 1 1.904527e+06 1.904530e+06 3.536
29 irregular 9 91 891 61 2.500000e+00 0.272 faster 1 1.904531e+06 1.904535e+06 3.567
29 irregular 9 92 892 61 2 0.427 faster 1 1.904539e+06 1.904542e+06 2.949
29 irregular 9 93 893 61 2.500000e+00 0.122 slower 0 1.904543e+06 1.904546e+06 3.159
29 irregular 9 94 894 58 3 0.512 faster 0 1.904549e+06 1.904553e+06 4.223
29 irregular 9 95 895 57 2.500000e+00 0.460 faster 0 1.904556e+06 1.904560e+06 3.877
29 irregular 9 96 896 64 1.500000e+00 0.566 faster 1 1.904563e+06 1.904565e+06 2.401
29 irregular 9 97 897 56 2 0.277 slower 1 1.904566e+06 1.904569e+06 2.854
29 irregular 9 98 898 57 3 0.461 slower 1 1.904570e+06 1.904574e+06 3.736
29 irregular 9 99 899 57 2.500000e+00 0.434 slower 1 1.904575e+06 1.904578e+06 3.203
29 irregular 9 100 900 58 1 0.307 slower 1 1.904579e+06 1.904582e+06 2.260
29 regular 10 1 901 58 1 0.179 faster 0 1.905139e+06 1.905140e+06 1.711
29 regular 10 2 902 57 1 0.338 faster 0 1.905141e+06 1.905143e+06 1.671
29 regular 10 3 903 64 1 0.247 faster 1 1.905144e+06 1.905146e+06 1.725
29 regular 10 4 904 63 1 0.139 slower 0 1.905146e+06 1.905148e+06 1.514
29 regular 10 5 905 64 1 0.566 faster 1 1.905149e+06 1.905151e+06 1.863
29 regular 10 6 906 56 1 0.281 slower 1 1.905152e+06 1.905154e+06 1.554
29 regular 10 7 907 63 1 0.318 faster 1 1.905154e+06 1.905156e+06 1.761
29 regular 10 8 908 57 1 0.310 slower 1 1.905157e+06 1.905159e+06 1.537
29 regular 10 9 909 58 1 0.347 faster 0 1.905160e+06 1.905162e+06 1.857
29 regular 10 10 910 63 1 0.493 slower 0 1.905163e+06 1.905164e+06 1.706
29 regular 10 11 911 56 1 0.427 slower 1 1.905165e+06 1.905167e+06 1.658
29 regular 10 12 912 56 1 0.543 slower 1 1.905168e+06 1.905170e+06 1.621
29 regular 10 13 913 57 1 0.272 slower 1 1.905171e+06 1.905173e+06 1.553
29 regular 10 14 914 57 1 0.373 faster 0 1.905174e+06 1.905175e+06 1.897
29 regular 10 15 915 64 1 0.574 faster 1 1.905177e+06 1.905179e+06 1.995
29 regular 10 16 916 63 1 0.461 faster 1 1.905180e+06 1.905182e+06 1.875
29 regular 10 17 917 63 1 0.240 faster 1 1.905183e+06 1.905185e+06 1.697
29 regular 10 18 918 62 1 0.381 slower 0 1.905187e+06 1.905188e+06 1.825
29 regular 10 19 919 57 1 0.389 slower 1 1.905191e+06 1.905193e+06 1.789
29 regular 10 20 920 57 1 0.449 slower 1 1.905195e+06 1.905197e+06 1.932
29 regular 10 21 921 62 1 0.435 slower 0 1.905198e+06 1.905199e+06 1.685
29 regular 10 22 922 57 1 0.209 slower 1 1.905200e+06 1.905202e+06 1.636
29 regular 10 23 923 57 1 0.425 slower 1 1.905203e+06 1.905205e+06 1.725
29 regular 10 24 924 62 1 0.519 slower 0 1.905206e+06 1.905208e+06 1.883
29 regular 10 25 925 57 1 0.405 faster 0 1.905212e+06 1.905214e+06 1.827
29 regular 10 26 926 64 1 0.502 faster 1 1.905215e+06 1.905217e+06 2.047
29 regular 10 27 927 56 1 0.188 faster 0 1.905218e+06 1.905220e+06 1.970
29 regular 10 28 928 55 1 0.442 slower 1 1.905221e+06 1.905223e+06 1.622
29 regular 10 29 929 56 1 0.141 slower 1 1.905224e+06 1.905225e+06 1.823
29 regular 10 30 930 56 1 0.106 faster 0 1.905227e+06 1.905229e+06 1.977
29 regular 10 31 931 55 1 0.511 slower 1 1.905230e+06 1.905232e+06 2.155
29 regular 10 32 932 64 1 0.108 faster 1 1.905233e+06 1.905235e+06 1.899
29 regular 10 33 933 64 1 0.579 faster 1 1.905236e+06 1.905238e+06 2.052
29 regular 10 34 934 63 1 0.546 faster 1 1.905241e+06 1.905243e+06 2.380
29 regular 10 35 935 63 1 0.514 slower 0 1.905246e+06 1.905247e+06 1.842
29 regular 10 36 936 56 1 0.474 slower 1 1.905250e+06 1.905252e+06 1.747
29 regular 10 37 937 63 1 0.263 faster 1 1.905255e+06 1.905256e+06 1.895
29 regular 10 38 938 57 1 0.426 slower 1 1.905260e+06 1.905262e+06 1.882
29 regular 10 39 939 58 1 0.472 slower 1 1.905263e+06 1.905265e+06 2.205
29 regular 10 40 940 58 1 0.307 slower 1 1.905266e+06 1.905268e+06 2.563
29 regular 10 41 941 59 1 0.134 slower 1 1.905271e+06 1.905273e+06 1.841
29 regular 10 42 942 61 1 0.325 slower 0 1.905274e+06 1.905275e+06 1.700
29 regular 10 43 943 58 1 0.498 faster 0 1.905279e+06 1.905280e+06 1.566
29 regular 10 44 944 63 1 0.459 faster 1 1.905282e+06 1.905284e+06 1.776
29 regular 10 45 945 62 1 0.122 faster 1 1.905285e+06 1.905289e+06 3.623
29 regular 10 46 946 62 1 0.416 faster 1 1.905291e+06 1.905293e+06 2.340
29 regular 10 47 947 59 1 0.138 slower 1 1.905294e+06 1.905296e+06 1.765
29 regular 10 48 948 61 1 0.332 slower 0 1.905297e+06 1.905299e+06 1.830
29 regular 10 49 949 62 1 0.145 slower 0 1.905300e+06 1.905302e+06 1.907
29 regular 10 50 950 57 1 0.520 faster 0 1.905303e+06 1.905305e+06 1.775
29 regular 10 51 951 64 1 0.245 slower 0 1.905306e+06 1.905308e+06 1.946
29 regular 10 52 952 65 1 0.174 faster 1 1.905309e+06 1.905311e+06 1.683
29 regular 10 53 953 64 1 0.304 faster 1 1.905313e+06 1.905315e+06 1.900
29 regular 10 54 954 56 1 0.283 slower 1 1.905316e+06 1.905317e+06 1.685
29 regular 10 55 955 63 1 0.535 slower 0 1.905319e+06 1.905321e+06 1.842
29 regular 10 56 956 56 1 0.115 slower 1 1.905322e+06 1.905323e+06 1.717
29 regular 10 57 957 56 1 0.314 slower 1 1.905324e+06 1.905327e+06 2.212
29 regular 10 58 958 63 1 0.412 slower 0 1.905328e+06 1.905329e+06 1.741
29 regular 10 59 959 64 1 0.457 faster 1 1.905332e+06 1.905334e+06 1.721
29 regular 10 60 960 64 1 0.182 faster 1 1.905336e+06 1.905338e+06 2.039
29 regular 10 61 961 57 1 0.319 slower 1 1.905340e+06 1.905342e+06 1.573
29 regular 10 62 962 57 1 0.113 slower 1 1.905343e+06 1.905345e+06 1.822
29 regular 10 63 963 58 1 0.229 faster 0 1.905346e+06 1.905348e+06 1.762
29 regular 10 64 964 57 1 0.236 faster 0 1.905349e+06 1.905351e+06 1.971
29 regular 10 65 965 56 1 0.175 slower 1 1.905353e+06 1.905355e+06 1.526
29 regular 10 66 966 56 1 0.263 slower 1 1.905356e+06 1.905357e+06 1.623
29 regular 10 67 967 63 1 0.521 slower 0 1.905359e+06 1.905361e+06 1.829
29 regular 10 68 968 56 1 0.260 slower 1 1.905367e+06 1.905369e+06 1.865
29 regular 10 69 969 56 1 0.313 slower 1 1.905370e+06 1.905372e+06 1.777
29 regular 10 70 970 63 1 0.175 faster 1 1.905373e+06 1.905375e+06 1.583
29 regular 10 71 971 63 1 0.360 slower 0 1.905376e+06 1.905377e+06 1.618
29 regular 10 72 972 64 1 0.447 faster 1 1.905378e+06 1.905380e+06 1.686
29 regular 10 73 973 63 1 0.539 faster 1 1.905382e+06 1.905384e+06 2.084
29 regular 10 74 974 57 1 0.541 faster 0 1.905386e+06 1.905389e+06 2.371
29 regular 10 75 975 56 1 0.550 slower 1 1.905397e+06 1.905398e+06 1.725
29 regular 10 76 976 63 1 0.217 faster 1 1.905400e+06 1.905401e+06 1.726
29 regular 10 77 977 57 1 0.440 faster 0 1.905403e+06 1.905405e+06 1.837
29 regular 10 78 978 64 1 0.212 faster 1 1.905407e+06 1.905409e+06 1.716
29 regular 10 79 979 63 1 0.545 slower 0 1.905410e+06 1.905413e+06 2.487
29 regular 10 80 980 56 1 0.533 slower 1 1.905414e+06 1.905416e+06 1.889
29 regular 10 81 981 64 1 0.237 slower 0 1.905417e+06 1.905419e+06 1.699
29 regular 10 82 982 65 1 0.143 slower 0 1.905421e+06 1.905423e+06 2.389
29 regular 10 83 983 54 1 0.231 slower 1 1.905424e+06 1.905426e+06 1.937
29 regular 10 84 984 65 1 0.527 faster 1 1.905428e+06 1.905429e+06 1.614
29 regular 10 85 985 55 1 0.168 slower 1 1.905430e+06 1.905432e+06 1.869
29 regular 10 86 986 64 1 0.111 slower 0 1.905433e+06 1.905435e+06 2.078
29 regular 10 87 987 65 1 0.550 faster 1 1.905437e+06 1.905439e+06 1.845
29 regular 10 88 988 55 1 0.220 faster 0 1.905439e+06 1.905441e+06 1.834
29 regular 10 89 989 66 1 0.454 faster 1 1.905443e+06 1.905446e+06 2.917
29 regular 10 90 990 55 1 0.103 faster 0 1.905447e+06 1.905448e+06 1.896
29 regular 10 91 991 54 1 0.448 faster 0 1.905449e+06 1.905452e+06 2.936
29 regular 10 92 992 67 1 0.467 faster 1 1.905454e+06 1.905455e+06 1.703
29 regular 10 93 993 67 1 0.150 slower 0 1.905456e+06 1.905458e+06 1.590
29 regular 10 94 994 52 1 0.487 faster 0 1.905459e+06 1.905461e+06 1.798
29 regular 10 95 995 69 1 0.594 faster 1 1.905462e+06 1.905463e+06 1.728
29 regular 10 96 996 52 1 0.524 slower 1 1.905465e+06 1.905467e+06 2.135
29 regular 10 97 997 68 1 0.397 faster 1 1.905468e+06 1.905470e+06 1.597
29 regular 10 98 998 53 1 0.242 slower 1 1.905471e+06 1.905473e+06 2.030
29 regular 10 99 999 67 1 0.194 faster 1 1.905474e+06 1.905476e+06 1.914
29 regular 10 100 1000 66 1 0.504 slower 0 1.905478e+06 1.905479e+06 1.631
