subNo condition blockNo trialNo trialID currentFrequency cueTargetInterval randomPreCueInterval response responseAccuracy startTime responseTime RT
13 irregular 1 1 1 69 3 0.410 faster 1 2.601593e+06 2.601598e+06 4.387
13 irregular 1 2 2 51 2.500000e+00 0.520 faster 0 2.601601e+06 2.601604e+06 3.578
13 irregular 1 3 3 71 1.500000e+00 0.437 faster 1 2.601606e+06 2.601609e+06 2.486
13 irregular 1 4 4 51 2.500000e+00 0.408 faster 0 2.601610e+06 2.601615e+06 4.343
13 irregular 1 5 5 49 1 0.459 faster 0 2.601617e+06 2.601619e+06 1.760
13 irregular 1 6 6 73 1 0.503 faster 1 2.601621e+06 2.601622e+06 1.785
13 irregular 1 7 7 47 3 0.321 slower 1 2.601623e+06 2.601628e+06 4.301
13 irregular 1 8 8 49 1.500000e+00 0.160 slower 1 2.601630e+06 2.601632e+06 2.652
13 irregular 1 9 9 49 1.500000e+00 0.547 slower 1 2.601634e+06 2.601637e+06 2.401
13 irregular 1 10 10 50 2.500000e+00 0.389 slower 1 2.601639e+06 2.601642e+06 3.288
13 irregular 1 11 11 70 1.500000e+00 0.433 slower 0 2.601644e+06 2.601646e+06 2.464
13 irregular 1 12 12 49 2 0.513 slower 1 2.601648e+06 2.601651e+06 2.805
13 irregular 1 13 13 50 2.500000e+00 0.452 slower 1 2.601652e+06 2.601656e+06 3.318
13 irregular 1 14 14 50 3 0.152 slower 1 2.601656e+06 2.601660e+06 3.786
13 irregular 1 15 15 51 3 0.169 slower 1 2.601661e+06 2.601665e+06 3.718
13 irregular 1 16 16 51 2 0.206 slower 1 2.601666e+06 2.601669e+06 3.044
13 irregular 1 17 17 52 1 0.443 slower 1 2.601671e+06 2.601673e+06 2.215
13 irregular 1 18 18 68 2.500000e+00 0.234 faster 1 2.601675e+06 2.601679e+06 3.838
13 irregular 1 19 19 67 1.500000e+00 0.438 faster 1 2.601681e+06 2.601684e+06 2.945
13 irregular 1 20 20 67 2 0.287 faster 1 2.601685e+06 2.601689e+06 3.218
13 irregular 1 21 21 54 3 0.165 faster 0 2.601690e+06 2.601694e+06 4.200
13 irregular 1 22 22 67 1.500000e+00 0.341 faster 1 2.601696e+06 2.601698e+06 2.587
13 irregular 1 23 23 53 3 0.464 slower 1 2.601699e+06 2.601704e+06 4.679
13 irregular 1 24 24 66 2.500000e+00 0.144 faster 1 2.601706e+06 2.601709e+06 3.254
13 irregular 1 25 25 54 1 0.144 faster 0 2.601711e+06 2.601713e+06 2.220
13 irregular 1 26 26 53 3 0.361 slower 1 2.601714e+06 2.601718e+06 3.836
13 irregular 1 27 27 66 2.500000e+00 0.420 faster 1 2.601720e+06 2.601723e+06 3.214
13 irregular 1 28 28 66 2.500000e+00 0.545 faster 1 2.601725e+06 2.601728e+06 3.154
13 irregular 1 29 29 65 2.500000e+00 0.599 faster 1 2.601730e+06 2.601733e+06 3.323
13 irregular 1 30 30 55 1.500000e+00 0.149 faster 0 2.601735e+06 2.601737e+06 2.409
13 irregular 1 31 31 66 3 0.198 faster 1 2.601738e+06 2.601742e+06 3.774
13 irregular 1 32 32 55 2 0.382 faster 0 2.601743e+06 2.601746e+06 2.943
13 irregular 1 33 33 54 1.500000e+00 0.175 faster 0 2.601748e+06 2.601751e+06 3.400
13 irregular 1 34 34 67 2 0.393 faster 1 2.601753e+06 2.601757e+06 3.826
13 irregular 1 35 35 53 1 0.514 faster 0 2.601759e+06 2.601761e+06 2.149
13 irregular 1 36 36 68 1 0.397 faster 1 2.601762e+06 2.601764e+06 1.974
13 irregular 1 37 37 67 2 0.518 faster 1 2.601766e+06 2.601769e+06 2.735
13 irregular 1 38 38 53 2.500000e+00 0.571 faster 0 2.601770e+06 2.601774e+06 3.620
13 irregular 1 39 39 52 2.500000e+00 0.528 slower 1 2.601775e+06 2.601778e+06 3.415
13 irregular 1 40 40 67 1.500000e+00 0.512 slower 0 2.601780e+06 2.601783e+06 2.468
13 irregular 1 41 41 52 2 0.421 slower 1 2.601785e+06 2.601790e+06 4.784
13 irregular 1 42 42 68 1.500000e+00 0.235 faster 1 2.601791e+06 2.601795e+06 3.485
13 irregular 1 43 43 53 3 0.267 slower 1 2.601797e+06 2.601801e+06 4.302
13 irregular 1 44 44 67 2 0.264 faster 1 2.601803e+06 2.601807e+06 3.880
13 irregular 1 45 45 66 2 0.277 faster 1 2.601809e+06 2.601812e+06 3.111
13 irregular 1 46 46 54 1.500000e+00 0.409 faster 0 2.601814e+06 2.601817e+06 2.741
13 irregular 1 47 47 53 2 0.436 faster 0 2.601820e+06 2.601822e+06 2.799
13 irregular 1 48 48 68 3 0.432 faster 1 2.601824e+06 2.601828e+06 3.781
13 irregular 1 49 49 67 1 0.182 faster 1 2.601829e+06 2.601832e+06 2.964
13 irregular 1 50 50 67 3 0.599 faster 1 2.601834e+06 2.601838e+06 3.771
13 irregular 1 51 51 66 2 0.472 faster 1 2.601839e+06 2.601843e+06 4.482
13 irregular 1 52 52 66 3 0.452 faster 1 2.601845e+06 2.601849e+06 3.734
13 irregular 1 53 53 55 1 0.548 faster 0 2.601852e+06 2.601854e+06 2.051
13 irregular 1 54 54 66 1 0.181 faster 1 2.601855e+06 2.601858e+06 2.966
13 irregular 1 55 55 54 3 0.136 faster 0 2.601859e+06 2.601863e+06 3.812
13 irregular 1 56 56 53 1 0.475 faster 0 2.601866e+06 2.601868e+06 2.788
13 irregular 1 57 57 68 2.500000e+00 0.307 none 2 2.601869e+06 2.601875e+06 5.499
13 irregular 1 58 58 68 1.500000e+00 0.273 none 2 2.601876e+06 2.601880e+06 4.500
13 irregular 1 59 59 68 1 0.457 faster 1 2.601881e+06 2.601884e+06 2.565
13 irregular 1 60 60 67 2.500000e+00 0.213 faster 1 2.601886e+06 2.601890e+06 4.618
13 irregular 1 61 61 67 1 0.117 faster 1 2.601892e+06 2.601895e+06 2.152
13 irregular 1 62 62 54 1.500000e+00 0.437 faster 0 2.601897e+06 2.601900e+06 2.766
13 irregular 1 63 63 67 2 0.436 faster 1 2.601901e+06 2.601904e+06 3.197
13 irregular 1 64 64 53 2 0.185 slower 1 2.601906e+06 2.601908e+06 2.760
13 irregular 1 65 65 54 1.500000e+00 0.210 none 2 2.601910e+06 2.601914e+06 4.499
13 irregular 1 66 66 66 1 0.496 faster 1 2.601915e+06 2.601917e+06 1.989
13 irregular 1 67 67 66 3 0.393 faster 1 2.601919e+06 2.601924e+06 4.111
13 irregular 1 68 68 55 3 0.278 faster 0 2.601925e+06 2.601929e+06 3.856
13 irregular 1 69 69 54 2.500000e+00 0.287 faster 0 2.601930e+06 2.601934e+06 4.300
13 irregular 1 70 70 53 2.500000e+00 0.571 slower 1 2.601937e+06 2.601941e+06 4.312
13 irregular 1 71 71 67 1.500000e+00 0.492 slower 0 2.601943e+06 2.601946e+06 2.884
13 irregular 1 72 72 52 2 0.563 slower 1 2.601947e+06 2.601951e+06 3.363
13 irregular 1 73 73 67 2.500000e+00 0.144 slower 0 2.601952e+06 2.601956e+06 3.549
13 irregular 1 74 74 68 3 0.213 slower 0 2.601957e+06 2.601961e+06 4.089
13 irregular 1 75 75 69 1 0.425 faster 1 2.601963e+06 2.601966e+06 3.123
13 irregular 1 76 76 51 1.500000e+00 0.456 slower 1 2.601968e+06 2.601972e+06 3.968
13 irregular 1 77 77 68 2 0.553 faster 1 2.601973e+06 2.601976e+06 3.029
13 irregular 1 78 78 68 1 0.320 slower 0 2.601977e+06 2.601980e+06 2.609
13 irregular 1 79 79 69 3 0.288 faster 1 2.601981e+06 2.601984e+06 3.926
13 irregular 1 80 80 52 1 0.583 faster 0 2.601986e+06 2.601988e+06 2.036
13 irregular 1 81 81 69 3 0.124 faster 1 2.601989e+06 2.601993e+06 4.301
13 irregular 1 82 82 51 1 0.195 faster 0 2.601994e+06 2.601996e+06 2.043
13 irregular 1 83 83 50 2 0.379 faster 0 2.601997e+06 2.602000e+06 2.698
13 irregular 1 84 84 71 2 0.539 faster 1 2.602002e+06 2.602005e+06 3.047
13 irregular 1 85 85 70 2.500000e+00 0.475 faster 1 2.602007e+06 2.602011e+06 4.095
13 irregular 1 86 86 70 3 0.288 faster 1 2.602012e+06 2.602016e+06 3.682
13 irregular 1 87 87 51 1.500000e+00 0.322 slower 1 2.602018e+06 2.602020e+06 2.433
13 irregular 1 88 88 69 1 0.298 faster 1 2.602022e+06 2.602024e+06 2.065
13 irregular 1 89 89 52 1.500000e+00 0.525 faster 0 2.602025e+06 2.602028e+06 2.564
13 irregular 1 90 90 51 2.500000e+00 0.553 faster 0 2.602030e+06 2.602033e+06 3.586
13 irregular 1 91 91 70 2.500000e+00 0.261 faster 1 2.602035e+06 2.602038e+06 3.556
13 irregular 1 92 92 50 3 0.414 slower 1 2.602039e+06 2.602043e+06 3.792
13 irregular 1 93 93 51 2 0.252 faster 0 2.602045e+06 2.602048e+06 3.000
13 irregular 1 94 94 50 1 0.226 slower 1 2.602049e+06 2.602051e+06 2.265
13 irregular 1 95 95 70 2 0.290 faster 1 2.602052e+06 2.602055e+06 2.699
13 irregular 1 96 96 51 2.500000e+00 0.406 faster 0 2.602057e+06 2.602061e+06 4.685
13 irregular 1 97 97 50 1 0.366 slower 1 2.602063e+06 2.602065e+06 2.243
13 irregular 1 98 98 70 1.500000e+00 0.540 faster 1 2.602066e+06 2.602069e+06 2.286
13 irregular 1 99 99 51 2 0.563 slower 1 2.602070e+06 2.602073e+06 2.693
13 irregular 1 100 100 69 1.500000e+00 0.588 faster 1 2.602074e+06 2.602077e+06 2.404
13 regular 2 1 101 68 2.500000e+00 0.585 slower 0 2.602288e+06 2.602293e+06 5.330
13 regular 2 2 102 51 2.500000e+00 0.374 slower 1 2.602295e+06 2.602298e+06 3.532
13 regular 2 3 103 51 2.500000e+00 0.327 slower 1 2.602301e+06 2.602304e+06 3.468
13 regular 2 4 104 52 2.500000e+00 0.555 slower 1 2.602306e+06 2.602309e+06 3.456
13 regular 2 5 105 68 2.500000e+00 0.184 slower 0 2.602311e+06 2.602314e+06 3.394
13 regular 2 6 106 69 2.500000e+00 0.408 slower 0 2.602315e+06 2.602319e+06 3.905
13 regular 2 7 107 50 2.500000e+00 0.420 slower 1 2.602321e+06 2.602324e+06 3.286
13 regular 2 8 108 51 2.500000e+00 0.356 slower 1 2.602326e+06 2.602329e+06 3.277
13 regular 2 9 109 51 2.500000e+00 0.341 slower 1 2.602330e+06 2.602334e+06 3.464
13 regular 2 10 110 68 2.500000e+00 0.433 slower 0 2.602335e+06 2.602338e+06 3.311
13 regular 2 11 111 51 2.500000e+00 0.300 slower 1 2.602339e+06 2.602343e+06 3.323
13 regular 2 12 112 69 2.500000e+00 0.268 slower 0 2.602345e+06 2.602348e+06 3.192
13 regular 2 13 113 70 2.500000e+00 0.165 slower 0 2.602349e+06 2.602353e+06 3.614
13 regular 2 14 114 49 2.500000e+00 0.414 slower 1 2.602354e+06 2.602357e+06 3.245
13 regular 2 15 115 50 2.500000e+00 0.537 slower 1 2.602359e+06 2.602362e+06 3.563
13 regular 2 16 116 50 2.500000e+00 0.489 slower 1 2.602363e+06 2.602367e+06 3.413
13 regular 2 17 117 69 2.500000e+00 0.235 slower 0 2.602368e+06 2.602371e+06 3.323
13 regular 2 18 118 70 2.500000e+00 0.535 slower 0 2.602373e+06 2.602376e+06 3.743
13 regular 2 19 119 49 2.500000e+00 0.262 slower 1 2.602379e+06 2.602382e+06 3.303
13 regular 2 20 120 71 2.500000e+00 0.543 slower 0 2.602383e+06 2.602388e+06 4.471
13 regular 2 21 121 72 2.500000e+00 0.179 slower 0 2.602389e+06 2.602392e+06 3.487
13 regular 2 22 122 73 2.500000e+00 0.319 none 2 2.602394e+06 2.602399e+06 5.499
13 regular 2 23 123 73 2.500000e+00 0.305 slower 0 2.602400e+06 2.602404e+06 3.857
13 regular 2 24 124 74 2.500000e+00 0.194 slower 0 2.602406e+06 2.602410e+06 3.669
13 regular 2 25 125 75 2.500000e+00 0.233 slower 0 2.602411e+06 2.602415e+06 4.565
13 regular 2 26 126 76 2.500000e+00 0.527 faster 1 2.602416e+06 2.602420e+06 3.752
13 regular 2 27 127 75 2.500000e+00 0.534 faster 1 2.602422e+06 2.602425e+06 3.339
13 regular 2 28 128 75 2.500000e+00 0.131 faster 1 2.602427e+06 2.602431e+06 4.330
13 regular 2 29 129 46 2.500000e+00 0.482 slower 1 2.602432e+06 2.602435e+06 3.218
13 regular 2 30 130 74 2.500000e+00 0.279 slower 0 2.602437e+06 2.602440e+06 3.851
13 regular 2 31 131 45 2.500000e+00 0.183 slower 1 2.602442e+06 2.602445e+06 3.220
13 regular 2 32 132 74 2.500000e+00 0.163 slower 0 2.602447e+06 2.602450e+06 3.491
13 regular 2 33 133 75 2.500000e+00 0.309 slower 0 2.602452e+06 2.602455e+06 3.548
13 regular 2 34 134 44 2.500000e+00 0.576 slower 1 2.602457e+06 2.602460e+06 3.670
13 regular 2 35 135 44 2.500000e+00 0.163 slower 1 2.602461e+06 2.602465e+06 3.335
13 regular 2 36 136 75 2.500000e+00 0.301 slower 0 2.602466e+06 2.602471e+06 5.104
13 regular 2 37 137 44 2.500000e+00 0.267 slower 1 2.602472e+06 2.602475e+06 3.140
13 regular 2 38 138 44 2.500000e+00 0.454 slower 1 2.602477e+06 2.602480e+06 3.316
13 regular 2 39 139 75 2.500000e+00 0.453 slower 0 2.602482e+06 2.602486e+06 3.924
13 regular 2 40 140 44 2.500000e+00 0.470 slower 1 2.602487e+06 2.602491e+06 4.121
13 regular 2 41 141 76 2.500000e+00 0.303 faster 1 2.602493e+06 2.602497e+06 4.382
13 regular 2 42 142 75 2.500000e+00 0.402 slower 0 2.602499e+06 2.602503e+06 4.097
13 regular 2 43 143 44 2.500000e+00 0.500 slower 1 2.602504e+06 2.602507e+06 3.349
13 regular 2 44 144 44 2.500000e+00 0.383 slower 1 2.602509e+06 2.602512e+06 3.503
13 regular 2 45 145 45 2.500000e+00 0.503 slower 1 2.602514e+06 2.602518e+06 3.463
13 regular 2 46 146 45 2.500000e+00 0.384 slower 1 2.602519e+06 2.602522e+06 3.430
13 regular 2 47 147 74 2.500000e+00 0.476 slower 0 2.602524e+06 2.602528e+06 4.502
13 regular 2 48 148 45 2.500000e+00 0.380 slower 1 2.602530e+06 2.602533e+06 3.505
13 regular 2 49 149 75 2.500000e+00 0.531 faster 1 2.602535e+06 2.602538e+06 3.356
13 regular 2 50 150 46 2.500000e+00 0.379 slower 1 2.602540e+06 2.602544e+06 3.330
13 regular 2 51 151 74 2.500000e+00 0.170 faster 1 2.602545e+06 2.602548e+06 3.281
13 regular 2 52 152 73 2.500000e+00 0.198 faster 1 2.602551e+06 2.602554e+06 3.334
13 regular 2 53 153 73 2.500000e+00 0.255 faster 1 2.602555e+06 2.602559e+06 3.343
13 regular 2 54 154 48 2.500000e+00 0.113 faster 0 2.602560e+06 2.602563e+06 3.512
13 regular 2 55 155 47 2.500000e+00 0.153 slower 1 2.602566e+06 2.602569e+06 3.234
13 regular 2 56 156 47 2.500000e+00 0.585 slower 1 2.602571e+06 2.602575e+06 3.428
13 regular 2 57 157 48 2.500000e+00 0.373 slower 1 2.602576e+06 2.602580e+06 4.100
13 regular 2 58 158 72 2.500000e+00 0.161 slower 0 2.602582e+06 2.602585e+06 3.664
13 regular 2 59 159 73 2.500000e+00 0.352 faster 1 2.602587e+06 2.602590e+06 3.323
13 regular 2 60 160 48 2.500000e+00 0.168 slower 1 2.602592e+06 2.602595e+06 3.226
13 regular 2 61 161 72 2.500000e+00 0.346 slower 0 2.602596e+06 2.602600e+06 3.307
13 regular 2 62 162 73 2.500000e+00 0.164 faster 1 2.602601e+06 2.602605e+06 3.570
13 regular 2 63 163 48 2.500000e+00 0.145 slower 1 2.602606e+06 2.602609e+06 3.369
13 regular 2 64 164 72 2.500000e+00 0.407 slower 0 2.602611e+06 2.602616e+06 5.042
13 regular 2 65 165 73 2.500000e+00 0.367 slower 0 2.602618e+06 2.602623e+06 4.394
13 regular 2 66 166 46 2.500000e+00 0.140 slower 1 2.602624e+06 2.602627e+06 3.206
13 regular 2 67 167 73 2.500000e+00 0.109 slower 0 2.602628e+06 2.602633e+06 4.628
13 regular 2 68 168 46 2.500000e+00 0.349 slower 1 2.602634e+06 2.602638e+06 3.714
13 regular 2 69 169 46 2.500000e+00 0.256 slower 1 2.602639e+06 2.602643e+06 3.186
13 regular 2 70 170 47 2.500000e+00 0.418 slower 1 2.602644e+06 2.602648e+06 3.162
13 regular 2 71 171 73 2.500000e+00 0.568 faster 1 2.602649e+06 2.602654e+06 4.702
13 regular 2 72 172 48 2.500000e+00 0.262 slower 1 2.602656e+06 2.602659e+06 3.391
13 regular 2 73 173 48 2.500000e+00 0.353 slower 1 2.602660e+06 2.602663e+06 3.319
13 regular 2 74 174 71 2.500000e+00 0.189 slower 0 2.602665e+06 2.602669e+06 3.939
13 regular 2 75 175 72 2.500000e+00 0.436 slower 0 2.602670e+06 2.602674e+06 3.874
13 regular 2 76 176 47 2.500000e+00 0.522 slower 1 2.602676e+06 2.602679e+06 3.491
13 regular 2 77 177 73 2.500000e+00 0.388 faster 1 2.602680e+06 2.602685e+06 4.464
13 regular 2 78 178 48 2.500000e+00 0.379 slower 1 2.602686e+06 2.602691e+06 4.165
13 regular 2 79 179 48 2.500000e+00 0.221 slower 1 2.602692e+06 2.602696e+06 3.344
13 regular 2 80 180 71 2.500000e+00 0.436 faster 1 2.602697e+06 2.602701e+06 3.790
13 regular 2 81 181 49 2.500000e+00 0.303 slower 1 2.602703e+06 2.602707e+06 3.941
13 regular 2 82 182 50 2.500000e+00 0.586 slower 1 2.602709e+06 2.602712e+06 3.678
13 regular 2 83 183 50 2.500000e+00 0.357 slower 1 2.602715e+06 2.602719e+06 4.340
13 regular 2 84 184 69 2.500000e+00 0.310 slower 0 2.602721e+06 2.602725e+06 3.898
13 regular 2 85 185 50 2.500000e+00 0.462 slower 1 2.602726e+06 2.602730e+06 3.581
13 regular 2 86 186 50 2.500000e+00 0.101 slower 1 2.602731e+06 2.602735e+06 3.773
13 regular 2 87 187 51 2.500000e+00 0.142 faster 0 2.602736e+06 2.602740e+06 3.825
13 regular 2 88 188 70 2.500000e+00 0.462 faster 1 2.602743e+06 2.602747e+06 3.404
13 regular 2 89 189 70 2.500000e+00 0.510 none 2 2.602748e+06 2.602753e+06 5.500
13 regular 2 90 190 70 2.500000e+00 0.290 none 2 2.602754e+06 2.602760e+06 5.500
13 regular 2 91 191 70 2.500000e+00 0.586 none 2 2.602761e+06 2.602766e+06 5.499
13 regular 2 92 192 50 2.500000e+00 0.128 none 2 2.602767e+06 2.602773e+06 5.500
13 regular 2 93 193 50 2.500000e+00 0.222 none 2 2.602774e+06 2.602779e+06 5.499
13 regular 2 94 194 50 2.500000e+00 0.188 none 2 2.602780e+06 2.602785e+06 5.499
13 regular 2 95 195 70 2.500000e+00 0.120 none 2 2.602786e+06 2.602792e+06 5.500
13 regular 2 96 196 70 2.500000e+00 0.169 none 2 2.602793e+06 2.602798e+06 5.500
13 regular 2 97 197 50 2.500000e+00 0.564 none 2 2.602800e+06 2.602805e+06 5.500
13 regular 2 98 198 50 2.500000e+00 0.341 none 2 2.602806e+06 2.602812e+06 5.499
13 regular 2 99 199 70 2.500000e+00 0.590 none 2 2.602813e+06 2.602818e+06 5.499
13 regular 2 100 200 70 2.500000e+00 0.300 none 2 2.602819e+06 2.602825e+06 5.499
13 irregular 3 1 201 70 2.500000e+00 0.209 faster 1 2.602951e+06 2.602955e+06 3.639
13 irregular 3 2 202 51 2.500000e+00 0.294 faster 0 2.602957e+06 2.602960e+06 3.805
13 irregular 3 3 203 70 2 0.293 faster 1 2.602962e+06 2.602965e+06 2.910
13 irregular 3 4 204 50 2 0.124 faster 0 2.602966e+06 2.602969e+06 2.835
13 irregular 3 5 205 49 2 0.589 faster 0 2.602970e+06 2.602973e+06 3.188
13 irregular 3 6 206 72 3 0.505 faster 1 2.602975e+06 2.602979e+06 3.821
13 irregular 3 7 207 49 3 0.220 faster 0 2.602981e+06 2.602985e+06 4.411
13 irregular 3 8 208 48 1.500000e+00 0.166 faster 0 2.602986e+06 2.602989e+06 2.386
13 irregular 3 9 209 73 2.500000e+00 0.323 faster 1 2.602990e+06 2.602994e+06 3.761
13 irregular 3 10 210 47 1 0.304 faster 0 2.602995e+06 2.602997e+06 2.326
13 irregular 3 11 211 46 1 0.540 faster 0 2.602999e+06 2.603001e+06 2.218
13 irregular 3 12 212 75 1 0.201 faster 1 2.603003e+06 2.603004e+06 1.680
13 irregular 3 13 213 46 3 0.359 faster 0 2.603006e+06 2.603009e+06 3.866
13 irregular 3 14 214 75 2 0.353 faster 1 2.603011e+06 2.603014e+06 3.311
13 irregular 3 15 215 75 2 0.596 faster 1 2.603016e+06 2.603019e+06 2.821
13 irregular 3 16 216 74 3 0.404 faster 1 2.603021e+06 2.603024e+06 3.872
13 irregular 3 17 217 74 1 0.561 faster 1 2.603026e+06 2.603028e+06 2.128
13 irregular 3 18 218 47 1 0.297 faster 0 2.603029e+06 2.603031e+06 1.762
13 irregular 3 19 219 46 2 0.287 faster 0 2.603032e+06 2.603035e+06 2.888
13 irregular 3 20 220 45 1.500000e+00 0.125 slower 1 2.603036e+06 2.603038e+06 2.515
13 irregular 3 21 221 45 2 0.599 slower 1 2.603040e+06 2.603043e+06 3.035
13 irregular 3 22 222 46 2.500000e+00 0.147 slower 1 2.603044e+06 2.603047e+06 3.310
13 irregular 3 23 223 74 2.500000e+00 0.318 faster 1 2.603049e+06 2.603053e+06 3.364
13 irregular 3 24 224 73 1 0.293 faster 1 2.603054e+06 2.603057e+06 3.155
13 irregular 3 25 225 47 3 0.143 slower 1 2.603058e+06 2.603062e+06 3.898
13 irregular 3 26 226 72 3 0.454 faster 1 2.603064e+06 2.603067e+06 3.716
13 irregular 3 27 227 48 2 0.545 faster 0 2.603069e+06 2.603072e+06 3.071
13 irregular 3 28 228 73 2 0.191 faster 1 2.603073e+06 2.603077e+06 3.216
13 irregular 3 29 229 48 1 0.527 faster 0 2.603078e+06 2.603080e+06 2.137
13 irregular 3 30 230 73 2 0.422 faster 1 2.603082e+06 2.603085e+06 2.876
13 irregular 3 31 231 73 2 0.556 faster 1 2.603087e+06 2.603090e+06 2.930
13 irregular 3 32 232 48 3 0.530 faster 0 2.603092e+06 2.603096e+06 4.011
13 irregular 3 33 233 47 2.500000e+00 0.453 faster 0 2.603097e+06 2.603101e+06 3.388
13 irregular 3 34 234 74 1.500000e+00 0.343 faster 1 2.603102e+06 2.603105e+06 2.341
13 irregular 3 35 235 74 2 0.335 faster 1 2.603107e+06 2.603110e+06 2.838
13 irregular 3 36 236 73 2 0.494 faster 1 2.603111e+06 2.603114e+06 2.826
13 irregular 3 37 237 47 2.500000e+00 0.418 faster 0 2.603115e+06 2.603119e+06 3.946
13 irregular 3 38 238 46 1.500000e+00 0.337 faster 0 2.603120e+06 2.603123e+06 2.505
13 irregular 3 39 239 45 1 0.516 faster 0 2.603125e+06 2.603127e+06 2.221
13 irregular 3 40 240 76 1 0.350 faster 1 2.603129e+06 2.603131e+06 1.682
13 irregular 3 41 241 45 1 0.461 faster 0 2.603133e+06 2.603135e+06 1.861
13 irregular 3 42 242 44 2.500000e+00 0.292 slower 1 2.603137e+06 2.603140e+06 3.252
13 irregular 3 43 243 76 2.500000e+00 0.542 faster 1 2.603142e+06 2.603146e+06 3.310
13 irregular 3 44 244 45 2.500000e+00 0.432 slower 1 2.603147e+06 2.603150e+06 3.483
13 irregular 3 45 245 75 1.500000e+00 0.187 faster 1 2.603152e+06 2.603154e+06 2.370
13 irregular 3 46 246 74 2.500000e+00 0.428 faster 1 2.603157e+06 2.603160e+06 3.162
13 irregular 3 47 247 46 3 0.310 faster 0 2.603161e+06 2.603166e+06 5.008
13 irregular 3 48 248 45 1 0.417 slower 1 2.603167e+06 2.603170e+06 3.025
13 irregular 3 49 249 74 2.500000e+00 0.442 faster 1 2.603173e+06 2.603176e+06 3.151
13 irregular 3 50 250 46 1.500000e+00 0.361 faster 0 2.603178e+06 2.603181e+06 3.377
13 irregular 3 51 251 45 1.500000e+00 0.377 slower 1 2.603183e+06 2.603186e+06 2.663
13 irregular 3 52 252 74 1 0.169 faster 1 2.603188e+06 2.603190e+06 1.963
13 irregular 3 53 253 46 3 0.115 slower 1 2.603191e+06 2.603194e+06 3.642
13 irregular 3 54 254 47 1 0.316 slower 1 2.603196e+06 2.603199e+06 2.861
13 irregular 3 55 255 73 3 0.577 faster 1 2.603201e+06 2.603204e+06 3.644
13 irregular 3 56 256 72 3 0.411 faster 1 2.603206e+06 2.603210e+06 3.984
13 irregular 3 57 257 72 1.500000e+00 0.119 faster 1 2.603211e+06 2.603214e+06 2.528
13 irregular 3 58 258 71 1 0.444 faster 1 2.603215e+06 2.603218e+06 2.885
13 irregular 3 59 259 71 1 0.113 faster 1 2.603219e+06 2.603221e+06 1.744
13 irregular 3 60 260 50 3 0.134 faster 0 2.603223e+06 2.603227e+06 3.558
13 irregular 3 61 261 71 3 0.354 faster 1 2.603228e+06 2.603232e+06 3.608
13 irregular 3 62 262 71 3 0.153 faster 1 2.603233e+06 2.603237e+06 4.472
13 irregular 3 63 263 50 1.500000e+00 0.484 none 2 2.603239e+06 2.603243e+06 4.500
13 irregular 3 64 264 50 2 0.303 faster 0 2.603244e+06 2.603247e+06 3.016
13 irregular 3 65 265 71 3 0.561 faster 1 2.603250e+06 2.603254e+06 3.690
13 irregular 3 66 266 71 2 0.208 faster 1 2.603255e+06 2.603259e+06 3.174
13 irregular 3 67 267 70 1.500000e+00 0.203 faster 1 2.603260e+06 2.603262e+06 2.334
13 irregular 3 68 268 50 1 0.511 faster 0 2.603264e+06 2.603266e+06 2.204
13 irregular 3 69 269 49 2.500000e+00 0.529 faster 0 2.603267e+06 2.603271e+06 3.229
13 irregular 3 70 270 72 1.500000e+00 0.430 faster 1 2.603272e+06 2.603274e+06 2.452
13 irregular 3 71 271 71 1 0.402 faster 1 2.603276e+06 2.603278e+06 1.827
13 irregular 3 72 272 71 1 0.205 faster 1 2.603279e+06 2.603280e+06 1.750
13 irregular 3 73 273 70 1.500000e+00 0.364 faster 1 2.603285e+06 2.603287e+06 2.267
13 irregular 3 74 274 50 1.500000e+00 0.279 slower 1 2.603294e+06 2.603297e+06 2.893
13 irregular 3 75 275 51 2.500000e+00 0.369 faster 0 2.603299e+06 2.603302e+06 3.359
13 irregular 3 76 276 70 1 0.453 faster 1 2.603303e+06 2.603305e+06 2.334
13 irregular 3 77 277 50 3 0.512 slower 1 2.603308e+06 2.603312e+06 4.134
13 irregular 3 78 278 69 3 0.415 faster 1 2.603313e+06 2.603318e+06 4.002
13 irregular 3 79 279 69 2.500000e+00 0.274 slower 0 2.603319e+06 2.603323e+06 4.245
13 irregular 3 80 280 50 2 0.146 faster 0 2.603325e+06 2.603328e+06 2.860
13 irregular 3 81 281 49 1.500000e+00 0.201 faster 0 2.603329e+06 2.603333e+06 4.066
13 irregular 3 82 282 72 1.500000e+00 0.594 faster 1 2.603334e+06 2.603337e+06 2.395
13 irregular 3 83 283 71 1.500000e+00 0.595 faster 1 2.603339e+06 2.603342e+06 3.076
13 irregular 3 84 284 71 1.500000e+00 0.395 faster 1 2.603344e+06 2.603346e+06 2.372
13 irregular 3 85 285 70 2.500000e+00 0.519 faster 1 2.603348e+06 2.603351e+06 3.499
13 irregular 3 86 286 50 1 0.195 faster 0 2.603352e+06 2.603355e+06 2.656
13 irregular 3 87 287 71 2 0.337 slower 0 2.603361e+06 2.603365e+06 3.678
13 irregular 3 88 288 48 2 0.205 slower 1 2.603368e+06 2.603371e+06 2.650
13 irregular 3 89 289 49 1.500000e+00 0.153 slower 1 2.603372e+06 2.603375e+06 2.919
13 irregular 3 90 290 49 3 0.139 slower 1 2.603377e+06 2.603381e+06 3.919
13 irregular 3 91 291 50 3 0.319 faster 0 2.603383e+06 2.603387e+06 4.332
13 irregular 3 92 292 49 2 0.118 faster 0 2.603389e+06 2.603394e+06 4.082
13 irregular 3 93 293 48 2 0.579 faster 0 2.603395e+06 2.603398e+06 2.971
13 irregular 3 94 294 73 2.500000e+00 0.321 faster 1 2.603399e+06 2.603403e+06 3.527
13 irregular 3 95 295 47 2.500000e+00 0.190 slower 1 2.603405e+06 2.603409e+06 3.288
13 irregular 3 96 296 72 1.500000e+00 0.481 slower 0 2.603410e+06 2.603414e+06 3.345
13 irregular 3 97 297 47 2.500000e+00 0.280 faster 0 2.603415e+06 2.603419e+06 3.794
13 irregular 3 98 298 74 3 0.328 faster 1 2.603420e+06 2.603424e+06 3.738
13 irregular 3 99 299 74 2.500000e+00 0.264 faster 1 2.603426e+06 2.603429e+06 3.212
13 irregular 3 100 300 47 1.500000e+00 0.241 faster 0 2.603431e+06 2.603433e+06 2.253
13 regular 4 1 301 46 1 0.408 slower 1 2.603587e+06 2.603590e+06 2.219
13 regular 4 2 302 46 1 0.488 slower 1 2.603591e+06 2.603593e+06 1.615
13 regular 4 3 303 47 1 0.435 slower 1 2.603594e+06 2.603596e+06 1.812
13 regular 4 4 304 47 1 0.489 slower 1 2.603597e+06 2.603599e+06 1.868
13 regular 4 5 305 48 1 0.174 slower 1 2.603600e+06 2.603601e+06 1.788
13 regular 4 6 306 72 1 0.343 slower 0 2.603603e+06 2.603604e+06 1.748
13 regular 4 7 307 47 1 0.545 slower 1 2.603606e+06 2.603608e+06 1.537
13 regular 4 8 308 72 1 0.460 slower 0 2.603609e+06 2.603611e+06 1.824
13 regular 4 9 309 73 1 0.232 slower 0 2.603612e+06 2.603615e+06 2.428
13 regular 4 10 310 74 1 0.361 faster 1 2.603616e+06 2.603618e+06 2.051
13 regular 4 11 311 74 1 0.331 faster 1 2.603619e+06 2.603621e+06 1.919
13 regular 4 12 312 47 1 0.148 slower 1 2.603622e+06 2.603624e+06 1.841
13 regular 4 13 313 47 1 0.476 slower 1 2.603626e+06 2.603628e+06 1.737
13 regular 4 14 314 72 1 0.285 slower 0 2.603629e+06 2.603631e+06 1.866
13 regular 4 15 315 73 1 0.483 faster 1 2.603632e+06 2.603634e+06 2.146
13 regular 4 16 316 47 1 0.310 slower 1 2.603636e+06 2.603638e+06 2.448
13 regular 4 17 317 72 1 0.411 faster 1 2.603640e+06 2.603642e+06 2.085
13 regular 4 18 318 72 1 0.395 faster 1 2.603643e+06 2.603645e+06 2.133
13 regular 4 19 319 49 1 0.569 slower 1 2.603647e+06 2.603649e+06 2.148
13 regular 4 20 320 71 1 0.166 faster 1 2.603650e+06 2.603652e+06 1.956
13 regular 4 21 321 70 1 0.333 faster 1 2.603653e+06 2.603656e+06 2.240
13 regular 4 22 322 50 1 0.377 slower 1 2.603657e+06 2.603659e+06 1.811
13 regular 4 23 323 69 1 0.579 faster 1 2.603661e+06 2.603663e+06 2.453
13 regular 4 24 324 51 1 0.469 slower 1 2.603665e+06 2.603667e+06 2.234
13 regular 4 25 325 52 1 0.431 slower 1 2.603668e+06 2.603671e+06 3.231
13 regular 4 26 326 52 1 0.363 slower 1 2.603673e+06 2.603675e+06 2.108
13 regular 4 27 327 67 1 0.314 slower 0 2.603679e+06 2.603681e+06 1.980
13 regular 4 28 328 68 1 0.374 faster 1 2.603682e+06 2.603685e+06 2.714
13 regular 4 29 329 52 1 0.257 faster 0 2.603686e+06 2.603688e+06 2.157
13 regular 4 30 330 51 1 0.280 faster 0 2.603689e+06 2.603692e+06 2.049
13 regular 4 31 331 70 1 0.591 slower 0 2.603693e+06 2.603695e+06 2.032
13 regular 4 32 332 49 1 0.297 slower 1 2.603697e+06 2.603698e+06 1.863
13 regular 4 33 333 50 1 0.128 slower 1 2.603699e+06 2.603701e+06 2.121
13 regular 4 34 334 50 1 0.432 slower 1 2.603703e+06 2.603705e+06 1.810
13 regular 4 35 335 51 1 0.123 slower 1 2.603706e+06 2.603708e+06 1.620
13 regular 4 36 336 51 1 0.462 slower 1 2.603709e+06 2.603712e+06 2.903
13 regular 4 37 337 68 1 0.384 slower 0 2.603714e+06 2.603715e+06 1.757
13 regular 4 38 338 69 1 0.196 slower 0 2.603717e+06 2.603718e+06 1.747
13 regular 4 39 339 50 1 0.291 slower 1 2.603720e+06 2.603722e+06 2.319
13 regular 4 40 340 70 1 0.156 slower 0 2.603723e+06 2.603725e+06 1.879
13 regular 4 41 341 49 1 0.303 slower 1 2.603726e+06 2.603728e+06 2.097
13 regular 4 42 342 50 1 0.370 slower 1 2.603730e+06 2.603732e+06 2.136
13 regular 4 43 343 50 1 0.170 slower 1 2.603733e+06 2.603735e+06 1.930
13 regular 4 44 344 51 1 0.410 faster 0 2.603736e+06 2.603738e+06 1.925
13 regular 4 45 345 50 1 0.476 slower 1 2.603739e+06 2.603742e+06 3.029
13 regular 4 46 346 70 1 0.136 faster 1 2.603743e+06 2.603745e+06 2.195
13 regular 4 47 347 51 1 0.347 slower 1 2.603747e+06 2.603749e+06 2.243
13 regular 4 48 348 51 1 0.364 faster 0 2.603750e+06 2.603753e+06 2.301
13 regular 4 49 349 70 1 0.395 faster 1 2.603754e+06 2.603756e+06 1.656
13 regular 4 50 350 69 1 0.240 slower 0 2.603759e+06 2.603761e+06 1.998
13 regular 4 51 351 70 1 0.372 slower 0 2.603762e+06 2.603764e+06 2.042
13 regular 4 52 352 49 1 0.599 slower 1 2.603766e+06 2.603768e+06 2.251
13 regular 4 53 353 71 1 0.278 slower 0 2.603769e+06 2.603772e+06 2.449
13 regular 4 54 354 72 1 0.508 slower 0 2.603773e+06 2.603775e+06 1.930
13 regular 4 55 355 73 1 0.404 slower 0 2.603777e+06 2.603779e+06 2.184
13 regular 4 56 356 46 1 0.269 slower 1 2.603780e+06 2.603781e+06 1.864
13 regular 4 57 357 73 1 0.478 slower 0 2.603783e+06 2.603785e+06 1.889
13 regular 4 58 358 46 1 0.414 slower 1 2.603786e+06 2.603788e+06 1.653
13 regular 4 59 359 74 1 0.139 slower 0 2.603788e+06 2.603790e+06 1.981
13 regular 4 60 360 45 1 0.255 slower 1 2.603791e+06 2.603793e+06 1.661
13 regular 4 61 361 74 1 0.502 slower 0 2.603795e+06 2.603796e+06 1.874
13 regular 4 62 362 75 1 0.426 slower 0 2.603797e+06 2.603799e+06 1.665
13 regular 4 63 363 44 1 0.517 slower 1 2.603801e+06 2.603802e+06 1.588
13 regular 4 64 364 76 1 0.303 slower 0 2.603803e+06 2.603805e+06 1.870
13 regular 4 65 365 77 1 0.138 slower 0 2.603806e+06 2.603808e+06 1.836
13 regular 4 66 366 78 1 0.372 faster 1 2.603809e+06 2.603811e+06 1.811
13 regular 4 67 367 77 1 0.204 slower 0 2.603812e+06 2.603814e+06 1.863
13 regular 4 68 368 78 1 0.397 faster 1 2.603816e+06 2.603817e+06 1.841
13 regular 4 69 369 78 1 0.535 slower 0 2.603819e+06 2.603821e+06 1.907
13 regular 4 70 370 79 1 0.299 faster 1 2.603822e+06 2.603825e+06 2.199
13 regular 4 71 371 42 1 0.564 slower 1 2.603826e+06 2.603828e+06 1.753
13 regular 4 72 372 42 1 0.363 slower 1 2.603829e+06 2.603831e+06 1.697
13 regular 4 73 373 77 1 0.591 faster 1 2.603833e+06 2.603835e+06 2.510
13 regular 4 74 374 43 1 0.262 slower 1 2.603837e+06 2.603839e+06 1.998
13 regular 4 75 375 44 1 0.486 slower 1 2.603841e+06 2.603842e+06 1.709
13 regular 4 76 376 44 1 0.491 slower 1 2.603844e+06 2.603846e+06 1.750
13 regular 4 77 377 45 1 0.466 slower 1 2.603847e+06 2.603849e+06 1.906
13 regular 4 78 378 75 1 0.529 slower 0 2.603850e+06 2.603852e+06 2.081
13 regular 4 79 379 44 1 0.519 slower 1 2.603854e+06 2.603856e+06 1.603
13 regular 4 80 380 75 1 0.288 faster 1 2.603857e+06 2.603859e+06 2.363
13 regular 4 81 381 75 1 0.278 faster 1 2.603860e+06 2.603862e+06 1.744
13 regular 4 82 382 46 1 0.188 slower 1 2.603863e+06 2.603865e+06 1.680
13 regular 4 83 383 46 1 0.228 slower 1 2.603866e+06 2.603868e+06 2.078
13 regular 4 84 384 73 1 0.177 faster 1 2.603869e+06 2.603871e+06 1.989
13 regular 4 85 385 47 1 0.124 slower 1 2.603872e+06 2.603873e+06 1.630
13 regular 4 86 386 48 1 0.468 slower 1 2.603875e+06 2.603877e+06 1.665
13 regular 4 87 387 72 1 0.282 faster 1 2.603878e+06 2.603880e+06 1.881
13 regular 4 88 388 49 1 0.325 slower 1 2.603881e+06 2.603883e+06 1.932
13 regular 4 89 389 49 1 0.374 faster 0 2.603884e+06 2.603886e+06 2.269
13 regular 4 90 390 72 1 0.574 slower 0 2.603888e+06 2.603890e+06 1.790
13 regular 4 91 391 47 1 0.343 slower 1 2.603891e+06 2.603893e+06 2.199
13 regular 4 92 392 72 1 0.335 faster 1 2.603894e+06 2.603897e+06 2.422
13 regular 4 93 393 72 1 0.496 slower 0 2.603898e+06 2.603901e+06 2.552
13 regular 4 94 394 73 1 0.461 slower 0 2.603902e+06 2.603904e+06 2.045
13 regular 4 95 395 74 1 0.220 faster 1 2.603905e+06 2.603907e+06 1.670
13 regular 4 96 396 73 1 0.535 faster 1 2.603908e+06 2.603910e+06 1.987
13 regular 4 97 397 73 1 0.133 faster 1 2.603911e+06 2.603912e+06 1.742
13 regular 4 98 398 48 1 0.564 faster 0 2.603914e+06 2.603916e+06 1.991
13 regular 4 99 399 73 1 0.223 faster 1 2.603917e+06 2.603919e+06 1.822
13 regular 4 100 400 47 1 0.547 slower 1 2.603921e+06 2.603922e+06 1.719
13 irregular 5 1 401 73 1.500000e+00 0.580 faster 1 2.687891e+06 2.687893e+06 2.415
13 irregular 5 2 402 47 2.500000e+00 0.475 slower 1 2.687895e+06 2.687898e+06 3.516
13 irregular 5 3 403 49 3 0.504 slower 1 2.687900e+06 2.687904e+06 3.698
13 irregular 5 4 404 71 3 0.275 faster 1 2.687905e+06 2.687910e+06 4.774
13 irregular 5 5 405 51 3 0.323 slower 1 2.687912e+06 2.687916e+06 4.644
13 irregular 5 6 406 69 2 0.271 faster 1 2.687918e+06 2.687921e+06 2.782
13 irregular 5 7 407 53 1.500000e+00 0.426 faster 0 2.687922e+06 2.687925e+06 2.211
13 irregular 5 8 408 69 2.500000e+00 0.522 faster 1 2.687926e+06 2.687929e+06 3.193
13 irregular 5 9 409 69 1.500000e+00 0.377 faster 1 2.687931e+06 2.687933e+06 2.141
13 irregular 5 10 410 53 3 0.274 faster 0 2.687934e+06 2.687938e+06 3.987
13 irregular 5 11 411 51 2 0.251 faster 0 2.687940e+06 2.687942e+06 2.704
13 irregular 5 12 412 49 1 0.400 faster 0 2.687944e+06 2.687946e+06 1.869
13 irregular 5 13 413 73 2 0.339 faster 1 2.687947e+06 2.687950e+06 2.630
13 irregular 5 14 414 47 2 0.511 faster 0 2.687952e+06 2.687954e+06 2.773
13 irregular 5 15 415 75 1 0.581 faster 1 2.687956e+06 2.687958e+06 1.637
13 irregular 5 16 416 47 2 0.524 slower 1 2.687959e+06 2.687962e+06 2.730
13 irregular 5 17 417 73 2.500000e+00 0.168 faster 1 2.687963e+06 2.687967e+06 4.386
13 irregular 5 18 418 48 2.500000e+00 0.146 slower 1 2.687968e+06 2.687972e+06 3.253
13 irregular 5 19 419 72 2.500000e+00 0.434 faster 1 2.687973e+06 2.687976e+06 3.215
13 irregular 5 20 420 49 1.500000e+00 0.267 slower 1 2.687977e+06 2.687980e+06 2.885
13 irregular 5 21 421 49 1 0.217 faster 0 2.687981e+06 2.687984e+06 2.380
13 irregular 5 22 422 72 1 0.198 faster 1 2.687985e+06 2.687987e+06 2.138
13 irregular 5 23 423 49 1 0.575 faster 0 2.687989e+06 2.687992e+06 3.026
13 irregular 5 24 424 72 1 0.207 faster 1 2.687992e+06 2.687994e+06 1.726
13 irregular 5 25 425 72 1.500000e+00 0.106 faster 1 2.687995e+06 2.687997e+06 2.262
13 irregular 5 26 426 71 1.500000e+00 0.146 faster 1 2.687998e+06 2.688001e+06 2.225
13 irregular 5 27 427 71 1 0.584 faster 1 2.688003e+06 2.688004e+06 1.731
13 irregular 5 28 428 70 1.500000e+00 0.316 faster 1 2.688006e+06 2.688008e+06 2.374
13 irregular 5 29 429 50 2.500000e+00 0.391 slower 1 2.688009e+06 2.688013e+06 3.412
13 irregular 5 30 430 51 2.500000e+00 0.119 slower 1 2.688015e+06 2.688019e+06 3.863
13 irregular 5 31 431 69 2 0.596 faster 1 2.688021e+06 2.688023e+06 2.633
13 irregular 5 32 432 52 1.500000e+00 0.441 faster 0 2.688025e+06 2.688027e+06 2.170
13 irregular 5 33 433 51 1 0.161 faster 0 2.688028e+06 2.688031e+06 2.720
13 irregular 5 34 434 70 1 0.515 faster 1 2.688033e+06 2.688034e+06 1.680
13 irregular 5 35 435 50 3 0.300 slower 1 2.688036e+06 2.688040e+06 4.391
13 irregular 5 36 436 69 2.500000e+00 0.595 faster 1 2.688042e+06 2.688046e+06 3.439
13 irregular 5 37 437 69 1 0.566 faster 1 2.688047e+06 2.688050e+06 2.869
13 irregular 5 38 438 52 1 0.344 faster 0 2.688052e+06 2.688053e+06 1.781
13 irregular 5 39 439 51 3 0.585 slower 1 2.688055e+06 2.688058e+06 3.638
13 irregular 5 40 440 69 2 0.267 faster 1 2.688060e+06 2.688063e+06 3.068
13 irregular 5 41 441 68 3 0.241 faster 1 2.688064e+06 2.688068e+06 3.844
13 irregular 5 42 442 52 1.500000e+00 0.505 faster 0 2.688070e+06 2.688072e+06 2.401
13 irregular 5 43 443 51 2 0.219 faster 0 2.688073e+06 2.688076e+06 2.808
13 irregular 5 44 444 50 2 0.297 faster 0 2.688077e+06 2.688080e+06 3.116
13 irregular 5 45 445 49 1 0.139 faster 0 2.688082e+06 2.688085e+06 2.304
13 irregular 5 46 446 72 2.500000e+00 0.186 faster 1 2.688086e+06 2.688089e+06 3.208
13 irregular 5 47 447 49 2 0.118 faster 0 2.688090e+06 2.688093e+06 2.781
13 irregular 5 48 448 72 2 0.326 faster 1 2.688095e+06 2.688099e+06 3.479
13 irregular 5 49 449 72 1 0.336 faster 1 2.688102e+06 2.688104e+06 1.964
13 irregular 5 50 450 49 1.500000e+00 0.124 faster 0 2.688104e+06 2.688107e+06 2.701
13 irregular 5 51 451 48 2.500000e+00 0.161 slower 1 2.688108e+06 2.688111e+06 3.217
13 irregular 5 52 452 72 2 0.287 faster 1 2.688113e+06 2.688117e+06 4.000
13 irregular 5 53 453 71 3 0.584 faster 1 2.688118e+06 2.688123e+06 4.789
13 irregular 5 54 454 49 3 0.401 slower 1 2.688124e+06 2.688127e+06 3.780
13 irregular 5 55 455 70 2.500000e+00 0.484 slower 0 2.688129e+06 2.688133e+06 3.910
13 irregular 5 56 456 71 3 0.161 slower 0 2.688135e+06 2.688140e+06 5.405
13 irregular 5 57 457 72 2 0.131 faster 1 2.688143e+06 2.688146e+06 2.843
13 irregular 5 58 458 72 3 0.580 faster 1 2.688147e+06 2.688151e+06 3.860
13 irregular 5 59 459 49 3 0.381 slower 1 2.688153e+06 2.688156e+06 3.724
13 irregular 5 60 460 49 2 0.311 slower 1 2.688158e+06 2.688160e+06 2.775
13 irregular 5 61 461 50 3 0.146 slower 1 2.688163e+06 2.688167e+06 4.166
13 irregular 5 62 462 70 1 0.525 faster 1 2.688169e+06 2.688172e+06 2.180
13 irregular 5 63 463 51 2 0.239 faster 0 2.688174e+06 2.688178e+06 3.250
13 irregular 5 64 464 50 2.500000e+00 0.576 faster 0 2.688179e+06 2.688183e+06 3.571
13 irregular 5 65 465 49 3 0.117 slower 1 2.688183e+06 2.688187e+06 3.694
13 irregular 5 66 466 49 2 0.533 slower 1 2.688189e+06 2.688193e+06 3.861
13 irregular 5 67 467 70 2.500000e+00 0.517 slower 0 2.688194e+06 2.688198e+06 3.773
13 irregular 5 68 468 71 1.500000e+00 0.263 faster 1 2.688206e+06 2.688209e+06 2.583
13 irregular 5 69 469 49 1.500000e+00 0.209 faster 0 2.688210e+06 2.688212e+06 2.553
13 irregular 5 70 470 48 1 0.526 faster 0 2.688214e+06 2.688216e+06 1.939
13 irregular 5 71 471 73 1 0.318 faster 1 2.688218e+06 2.688220e+06 1.790
13 irregular 5 72 472 48 2 0.217 slower 1 2.688221e+06 2.688224e+06 2.824
13 irregular 5 73 473 48 2.500000e+00 0.389 faster 0 2.688226e+06 2.688229e+06 3.932
13 irregular 5 74 474 73 3 0.292 faster 1 2.688230e+06 2.688234e+06 3.833
13 irregular 5 75 475 72 3 0.600 faster 1 2.688236e+06 2.688240e+06 3.853
13 irregular 5 76 476 72 3 0.227 faster 1 2.688241e+06 2.688245e+06 3.792
13 irregular 5 77 477 71 1.500000e+00 0.439 faster 1 2.688246e+06 2.688249e+06 2.353
13 irregular 5 78 478 49 2.500000e+00 0.358 slower 1 2.688250e+06 2.688254e+06 3.353
13 irregular 5 79 479 70 2.500000e+00 0.573 faster 1 2.688255e+06 2.688259e+06 3.339
13 irregular 5 80 480 70 3 0.202 faster 1 2.688260e+06 2.688265e+06 5.019
13 irregular 5 81 481 51 1.500000e+00 0.450 faster 0 2.688267e+06 2.688269e+06 2.504
13 irregular 5 82 482 50 2.500000e+00 0.326 faster 0 2.688271e+06 2.688275e+06 4.710
13 irregular 5 83 483 71 2 0.368 faster 1 2.688278e+06 2.688280e+06 2.870
13 irregular 5 84 484 71 1 0.258 faster 1 2.688282e+06 2.688284e+06 1.971
13 irregular 5 85 485 70 3 0.204 faster 1 2.688285e+06 2.688290e+06 4.519
13 irregular 5 86 486 50 1 0.209 faster 0 2.688291e+06 2.688293e+06 1.948
13 irregular 5 87 487 49 1 0.471 faster 0 2.688295e+06 2.688297e+06 2.397
13 irregular 5 88 488 72 1.500000e+00 0.150 faster 1 2.688300e+06 2.688302e+06 2.311
13 irregular 5 89 489 49 1.500000e+00 0.262 slower 1 2.688304e+06 2.688306e+06 2.182
13 irregular 5 90 490 49 1.500000e+00 0.321 faster 0 2.688307e+06 2.688311e+06 3.398
13 irregular 5 91 491 48 1 0.271 slower 1 2.688313e+06 2.688315e+06 2.326
13 irregular 5 92 492 49 1.500000e+00 0.442 faster 0 2.688317e+06 2.688320e+06 3.567
13 irregular 5 93 493 48 3 0.413 slower 1 2.688322e+06 2.688325e+06 3.785
13 irregular 5 94 494 72 2.500000e+00 0.474 faster 1 2.688327e+06 2.688332e+06 4.797
13 irregular 5 95 495 71 1.500000e+00 0.553 faster 1 2.688333e+06 2.688335e+06 2.189
13 irregular 5 96 496 71 2 0.586 faster 1 2.688340e+06 2.688343e+06 2.962
13 irregular 5 97 497 70 1.500000e+00 0.373 faster 1 2.688344e+06 2.688346e+06 2.255
13 irregular 5 98 498 70 2 0.384 faster 1 2.688347e+06 2.688350e+06 2.681
13 irregular 5 99 499 51 2.500000e+00 0.139 slower 1 2.688352e+06 2.688356e+06 3.816
13 irregular 5 100 500 69 2.500000e+00 0.373 faster 1 2.688358e+06 2.688362e+06 4.283
13 regular 6 1 501 68 3 0.568 slower 0 2.688483e+06 2.688487e+06 4.045
13 regular 6 2 502 51 3 0.338 slower 1 2.688488e+06 2.688492e+06 3.820
13 regular 6 3 503 69 3 0.245 slower 0 2.688493e+06 2.688497e+06 3.700
13 regular 6 4 504 70 3 0.143 slower 0 2.688498e+06 2.688501e+06 3.783
13 regular 6 5 505 49 3 0.477 slower 1 2.688503e+06 2.688507e+06 3.679
13 regular 6 6 506 70 3 0.268 slower 0 2.688508e+06 2.688513e+06 4.732
13 regular 6 7 507 49 3 0.436 slower 1 2.688514e+06 2.688518e+06 3.729
13 regular 6 8 508 71 3 0.272 slower 0 2.688519e+06 2.688523e+06 3.674
13 regular 6 9 509 48 3 0.172 slower 1 2.688524e+06 2.688528e+06 3.702
13 regular 6 10 510 49 3 0.251 slower 1 2.688528e+06 2.688532e+06 3.701
13 regular 6 11 511 49 3 0.108 slower 1 2.688533e+06 2.688537e+06 3.523
13 regular 6 12 512 70 3 0.335 slower 0 2.688538e+06 2.688542e+06 3.773
13 regular 6 13 513 49 3 0.296 slower 1 2.688543e+06 2.688547e+06 3.832
13 regular 6 14 514 71 3 0.402 faster 1 2.688549e+06 2.688553e+06 4.070
13 regular 6 15 515 50 3 0.363 none 2 2.688554e+06 2.688560e+06 6.000
13 regular 6 16 516 70 3 0.302 none 2 2.688561e+06 2.688567e+06 6.000
13 regular 6 17 517 70 3 0.119 none 2 2.688568e+06 2.688574e+06 5.999
13 regular 6 18 518 70 3 0.156 none 2 2.688575e+06 2.688581e+06 5.999
13 regular 6 19 519 70 3 0.292 none 2 2.688582e+06 2.688588e+06 6.000
13 regular 6 20 520 70 3 0.274 none 2 2.688588e+06 2.688594e+06 6.000
13 regular 6 21 521 70 3 0.496 none 2 2.688596e+06 2.688602e+06 6.000
13 regular 6 22 522 50 3 0.321 none 2 2.688603e+06 2.688609e+06 5.999
13 regular 6 23 523 50 3 0.246 none 2 2.688609e+06 2.688615e+06 5.999
13 regular 6 24 524 70 3 0.512 none 2 2.688617e+06 2.688623e+06 5.999
13 regular 6 25 525 70 3 0.448 none 2 2.688624e+06 2.688630e+06 5.999
13 regular 6 26 526 70 3 0.126 none 2 2.688630e+06 2.688636e+06 6.000
13 regular 6 27 527 70 3 0.533 none 2 2.688638e+06 2.688644e+06 6.000
13 regular 6 28 528 50 3 0.466 none 2 2.688645e+06 2.688651e+06 5.999
13 regular 6 29 529 70 3 0.480 none 2 2.688652e+06 2.688658e+06 5.999
13 regular 6 30 530 50 3 0.369 none 2 2.688659e+06 2.688665e+06 5.999
13 regular 6 31 531 70 3 0.426 none 2 2.688666e+06 2.688672e+06 6.000
13 regular 6 32 532 50 3 0.496 none 2 2.688673e+06 2.688679e+06 5.999
13 regular 6 33 533 70 3 0.562 none 2 2.688680e+06 2.688686e+06 6.000
13 regular 6 34 534 50 3 0.553 none 2 2.688688e+06 2.688694e+06 5.999
13 regular 6 35 535 70 3 0.514 none 2 2.688695e+06 2.688701e+06 5.999
13 regular 6 36 536 70 3 0.589 none 2 2.688702e+06 2.688708e+06 6.000
13 regular 6 37 537 50 3 0.447 none 2 2.688710e+06 2.688716e+06 6.000
13 regular 6 38 538 50 3 0.582 none 2 2.688717e+06 2.688723e+06 5.999
13 regular 6 39 539 50 3 0.459 none 2 2.688724e+06 2.688730e+06 5.999
13 regular 6 40 540 70 3 0.501 none 2 2.688731e+06 2.688737e+06 5.999
13 regular 6 41 541 50 3 0.416 none 2 2.688738e+06 2.688744e+06 6.000
13 regular 6 42 542 50 3 0.273 none 2 2.688745e+06 2.688751e+06 6.000
13 regular 6 43 543 50 3 0.346 none 2 2.688752e+06 2.688758e+06 5.999
13 regular 6 44 544 50 3 0.180 none 2 2.688759e+06 2.688765e+06 6.000
13 regular 6 45 545 50 3 0.329 none 2 2.688766e+06 2.688772e+06 5.999
13 regular 6 46 546 70 3 0.187 none 2 2.688773e+06 2.688779e+06 5.999
13 regular 6 47 547 50 3 0.287 none 2 2.688779e+06 2.688785e+06 6.000
13 regular 6 48 548 50 3 0.293 none 2 2.688786e+06 2.688792e+06 5.999
13 regular 6 49 549 70 3 0.406 none 2 2.688793e+06 2.688799e+06 6.000
13 regular 6 50 550 50 3 0.102 none 2 2.688800e+06 2.688806e+06 6.000
13 regular 6 51 551 50 3 0.382 none 2 2.688807e+06 2.688813e+06 6.000
13 regular 6 52 552 50 3 0.276 slower 1 2.688814e+06 2.688813e+06 -0.905
13 regular 6 53 553 50 3 0.446 slower 1 2.688818e+06 2.688822e+06 4.173
13 regular 6 54 554 69 3 0.235 slower 0 2.688824e+06 2.688828e+06 4.002
13 regular 6 55 555 70 3 0.238 faster 1 2.688830e+06 2.688834e+06 4.113
13 regular 6 56 556 70 3 0.383 slower 0 2.688836e+06 2.688840e+06 4.327
13 regular 6 57 557 71 3 0.521 slower 0 2.688841e+06 2.688846e+06 4.706
13 regular 6 58 558 72 3 0.487 slower 0 2.688848e+06 2.688853e+06 4.298
13 regular 6 59 559 47 3 0.364 faster 0 2.688855e+06 2.688859e+06 4.267
13 regular 6 60 560 46 3 0.498 slower 1 2.688860e+06 2.688864e+06 3.981
13 regular 6 61 561 73 3 0.521 slower 0 2.688866e+06 2.688870e+06 4.341
13 regular 6 62 562 46 3 0.598 slower 1 2.688872e+06 2.688876e+06 4.014
13 regular 6 63 563 46 3 0.368 slower 1 2.688877e+06 2.688882e+06 4.836
13 regular 6 64 564 73 3 0.418 faster 1 2.688883e+06 2.688888e+06 4.917
13 regular 6 65 565 73 3 0.541 faster 1 2.688889e+06 2.688893e+06 4.118
13 regular 6 66 566 48 3 0.118 none 2 2.688894e+06 2.688900e+06 5.999
13 regular 6 67 567 72 3 0.438 none 2 2.688901e+06 2.688907e+06 6.000
13 regular 6 68 568 72 3 0.129 none 2 2.688908e+06 2.688914e+06 5.999
13 regular 6 69 569 48 3 0.143 none 2 2.688915e+06 2.688921e+06 6.000
13 regular 6 70 570 72 3 0.177 none 2 2.688921e+06 2.688927e+06 5.999
13 regular 6 71 571 72 3 0.495 none 2 2.688929e+06 2.688935e+06 5.999
13 regular 6 72 572 72 3 0.575 none 2 2.688936e+06 2.688942e+06 5.999
13 regular 6 73 573 48 3 0.349 none 2 2.688943e+06 2.688949e+06 6.000
13 regular 6 74 574 72 3 0.230 none 2 2.688950e+06 2.688956e+06 6.000
13 regular 6 75 575 48 3 0.596 none 2 2.688957e+06 2.688963e+06 5.999
13 regular 6 76 576 72 3 0.102 none 2 2.688964e+06 2.688970e+06 6.000
13 regular 6 77 577 48 3 0.340 none 2 2.688971e+06 2.688977e+06 5.999
13 regular 6 78 578 48 3 0.436 none 2 2.688978e+06 2.688984e+06 6.000
13 regular 6 79 579 48 3 0.296 none 2 2.688985e+06 2.688991e+06 6.000
13 regular 6 80 580 72 3 0.210 none 2 2.688991e+06 2.688997e+06 5.999
13 regular 6 81 581 48 3 0.418 none 2 2.688998e+06 2.689004e+06 6.000
13 regular 6 82 582 48 3 0.430 none 2 2.689006e+06 2.689012e+06 5.999
13 regular 6 83 583 48 3 0.408 none 2 2.689013e+06 2.689019e+06 6.000
13 regular 6 84 584 48 3 0.132 none 2 2.689019e+06 2.689025e+06 5.999
13 regular 6 85 585 72 3 0.496 none 2 2.689026e+06 2.689032e+06 5.999
13 regular 6 86 586 48 3 0.389 none 2 2.689033e+06 2.689039e+06 6.000
13 regular 6 87 587 72 3 0.168 faster 1 2.689040e+06 2.689045e+06 4.532
13 regular 6 88 588 72 3 0.597 faster 1 2.689047e+06 2.689052e+06 4.884
13 regular 6 89 589 71 3 0.190 faster 1 2.689053e+06 2.689057e+06 3.953
13 regular 6 90 590 71 3 0.524 slower 0 2.689058e+06 2.689062e+06 4.252
13 regular 6 91 591 48 3 0.485 slower 1 2.689064e+06 2.689068e+06 3.816
13 regular 6 92 592 71 3 0.248 slower 0 2.689069e+06 2.689073e+06 4.258
13 regular 6 93 593 48 3 0.220 slower 1 2.689074e+06 2.689079e+06 4.990
13 regular 6 94 594 48 3 0.113 slower 1 2.689080e+06 2.689084e+06 4.020
13 regular 6 95 595 49 3 0.123 slower 1 2.689085e+06 2.689089e+06 3.879
13 regular 6 96 596 49 3 0.501 slower 1 2.689091e+06 2.689094e+06 3.710
13 regular 6 97 597 70 3 0.217 slower 0 2.689096e+06 2.689100e+06 3.985
13 regular 6 98 598 49 3 0.238 slower 1 2.689101e+06 2.689105e+06 3.713
13 regular 6 99 599 71 3 0.378 slower 0 2.689106e+06 2.689110e+06 3.918
13 regular 6 100 600 72 3 0.130 slower 0 2.689111e+06 2.689115e+06 4.290
13 irregular 7 1 601 47 2 0.196 faster 0 2.689222e+06 2.689225e+06 3.151
13 irregular 7 2 602 46 2.500000e+00 0.519 slower 1 2.689226e+06 2.689231e+06 4.153
13 irregular 7 3 603 47 2 0.346 faster 0 2.689232e+06 2.689236e+06 3.527
13 irregular 7 4 604 74 1.500000e+00 0.579 faster 1 2.689237e+06 2.689239e+06 2.310
13 irregular 7 5 605 74 1.500000e+00 0.111 faster 1 2.689240e+06 2.689242e+06 2.103
13 irregular 7 6 606 47 3 0.584 slower 1 2.689244e+06 2.689248e+06 3.770
13 irregular 7 7 607 47 1 0.379 faster 0 2.689249e+06 2.689252e+06 2.653
13 irregular 7 8 608 74 3 0.123 faster 1 2.689253e+06 2.689258e+06 4.839
13 irregular 7 9 609 73 2 0.397 faster 1 2.689260e+06 2.689262e+06 2.756
13 irregular 7 10 610 47 2.500000e+00 0.527 slower 1 2.689264e+06 2.689267e+06 3.558
13 irregular 7 11 611 48 3 0.179 faster 0 2.689268e+06 2.689272e+06 3.877
13 irregular 7 12 612 73 1.500000e+00 0.335 faster 1 2.689273e+06 2.689275e+06 2.521
13 irregular 7 13 613 47 1.500000e+00 0.274 faster 0 2.689276e+06 2.689281e+06 4.282
13 irregular 7 14 614 46 1.500000e+00 0.231 slower 1 2.689282e+06 2.689284e+06 2.262
13 irregular 7 15 615 73 2.500000e+00 0.420 faster 1 2.689285e+06 2.689290e+06 4.575
13 irregular 7 16 616 73 1 0.341 faster 1 2.689291e+06 2.689294e+06 2.242
13 irregular 7 17 617 72 2 0.507 faster 1 2.689295e+06 2.689298e+06 3.412
13 irregular 7 18 618 72 3 0.148 faster 1 2.689299e+06 2.689303e+06 3.902
13 irregular 7 19 619 71 1 0.258 faster 1 2.689304e+06 2.689306e+06 2.008
13 irregular 7 20 620 49 2.500000e+00 0.107 slower 1 2.689307e+06 2.689311e+06 3.418
13 irregular 7 21 621 50 2.500000e+00 0.276 slower 1 2.689312e+06 2.689316e+06 3.739
13 irregular 7 22 622 50 1 0.136 slower 1 2.689317e+06 2.689319e+06 2.286
13 irregular 7 23 623 51 1.500000e+00 0.450 slower 1 2.689321e+06 2.689323e+06 2.452
13 irregular 7 24 624 51 2.500000e+00 0.290 faster 0 2.689325e+06 2.689328e+06 3.517
13 irregular 7 25 625 70 1.500000e+00 0.111 faster 1 2.689330e+06 2.689333e+06 2.932
13 irregular 7 26 626 51 1.500000e+00 0.532 slower 1 2.689334e+06 2.689337e+06 2.920
13 irregular 7 27 627 51 1.500000e+00 0.303 faster 0 2.689339e+06 2.689342e+06 2.550
13 irregular 7 28 628 70 1.500000e+00 0.393 faster 1 2.689343e+06 2.689346e+06 2.561
13 irregular 7 29 629 69 2 0.117 faster 1 2.689347e+06 2.689350e+06 3.213
13 irregular 7 30 630 69 2.500000e+00 0.167 faster 1 2.689351e+06 2.689354e+06 3.261
13 irregular 7 31 631 52 3 0.435 faster 0 2.689356e+06 2.689360e+06 4.335
13 irregular 7 32 632 51 1.500000e+00 0.429 faster 0 2.689362e+06 2.689364e+06 2.388
13 irregular 7 33 633 50 2 0.261 slower 1 2.689365e+06 2.689369e+06 3.443
13 irregular 7 34 634 50 3 0.278 slower 1 2.689370e+06 2.689374e+06 4.065
13 irregular 7 35 635 51 2 0.185 faster 0 2.689375e+06 2.689378e+06 3.163
13 irregular 7 36 636 50 1 0.270 faster 0 2.689380e+06 2.689382e+06 2.535
13 irregular 7 37 637 71 2 0.309 faster 1 2.689384e+06 2.689387e+06 3.720
13 irregular 7 38 638 71 3 0.470 faster 1 2.689389e+06 2.689393e+06 4.112
13 irregular 7 39 639 70 2 0.129 faster 1 2.689393e+06 2.689396e+06 2.836
13 irregular 7 40 640 70 3 0.111 faster 1 2.689397e+06 2.689401e+06 3.668
13 irregular 7 41 641 69 1.500000e+00 0.379 faster 1 2.689402e+06 2.689404e+06 2.608
13 irregular 7 42 642 69 2.500000e+00 0.547 faster 1 2.689406e+06 2.689409e+06 3.177
13 irregular 7 43 643 52 1 0.451 none 2 2.689411e+06 2.689415e+06 4.000
13 irregular 7 44 644 68 2 0.175 slower 0 2.689415e+06 2.689420e+06 4.370
13 irregular 7 45 645 69 1.500000e+00 0.497 faster 1 2.689421e+06 2.689423e+06 2.600
13 irregular 7 46 646 51 2.500000e+00 0.141 slower 1 2.689424e+06 2.689428e+06 3.904
13 irregular 7 47 647 68 2 0.429 faster 1 2.689430e+06 2.689433e+06 2.884
13 irregular 7 48 648 68 2 0.147 faster 1 2.689434e+06 2.689436e+06 2.636
13 irregular 7 49 649 67 2.500000e+00 0.364 faster 1 2.689438e+06 2.689441e+06 3.175
13 irregular 7 50 650 67 1.500000e+00 0.241 faster 1 2.689443e+06 2.689445e+06 2.381
13 irregular 7 51 651 66 1 0.190 faster 1 2.689446e+06 2.689448e+06 1.815
13 irregular 7 52 652 54 1 0.575 faster 0 2.689449e+06 2.689451e+06 1.690
13 irregular 7 53 653 53 1 0.113 faster 0 2.689452e+06 2.689454e+06 1.835
13 irregular 7 54 654 52 2 0.204 faster 0 2.689456e+06 2.689458e+06 2.625
13 irregular 7 55 655 51 3 0.286 faster 0 2.689459e+06 2.689464e+06 4.724
13 irregular 7 56 656 50 2.500000e+00 0.210 faster 0 2.689466e+06 2.689470e+06 4.524
13 irregular 7 57 657 71 2.500000e+00 0.495 slower 0 2.689472e+06 2.689477e+06 5.056
13 irregular 7 58 658 72 3 0.228 none 2 2.689478e+06 2.689484e+06 6.000
13 irregular 7 59 659 72 1 0.512 faster 1 2.689486e+06 2.689488e+06 2.114
13 irregular 7 60 660 49 1 0.260 faster 0 2.689489e+06 2.689491e+06 2.481
13 irregular 7 61 661 48 1.500000e+00 0.393 faster 0 2.689493e+06 2.689496e+06 2.720
13 irregular 7 62 662 73 1 0.547 faster 1 2.689497e+06 2.689499e+06 1.994
13 irregular 7 63 663 47 1 0.504 faster 0 2.689500e+06 2.689502e+06 2.017
13 irregular 7 64 664 74 3 0.389 faster 1 2.689503e+06 2.689507e+06 3.759
13 irregular 7 65 665 73 1 0.500 faster 1 2.689509e+06 2.689511e+06 1.806
13 irregular 7 66 666 73 1 0.463 faster 1 2.689512e+06 2.689514e+06 1.657
13 irregular 7 67 667 48 2.500000e+00 0.581 slower 1 2.689516e+06 2.689519e+06 3.265
13 irregular 7 68 668 48 3 0.593 slower 1 2.689520e+06 2.689524e+06 3.688
13 irregular 7 69 669 71 1 0.318 faster 1 2.689526e+06 2.689529e+06 3.575
13 irregular 7 70 670 49 3 0.233 slower 1 2.689531e+06 2.689536e+06 4.920
13 irregular 7 71 671 70 2.500000e+00 0.324 faster 1 2.689537e+06 2.689540e+06 3.255
13 irregular 7 72 672 70 2.500000e+00 0.545 faster 1 2.689542e+06 2.689545e+06 3.447
13 irregular 7 73 673 51 3 0.228 slower 1 2.689547e+06 2.689551e+06 3.903
13 irregular 7 74 674 51 2 0.211 slower 1 2.689552e+06 2.689555e+06 3.208
13 irregular 7 75 675 52 2 0.279 slower 1 2.689557e+06 2.689560e+06 3.045
13 irregular 7 76 676 52 2 0.142 slower 1 2.689561e+06 2.689566e+06 4.443
13 irregular 7 77 677 67 1.500000e+00 0.528 faster 1 2.689567e+06 2.689570e+06 3.060
13 irregular 7 78 678 67 2 0.413 faster 1 2.689572e+06 2.689575e+06 2.733
13 irregular 7 79 679 66 2.500000e+00 0.517 faster 1 2.689576e+06 2.689580e+06 3.166
13 irregular 7 80 680 54 2.500000e+00 0.404 faster 0 2.689581e+06 2.689584e+06 3.342
13 irregular 7 81 681 67 3 0.325 faster 1 2.689585e+06 2.689589e+06 3.670
13 irregular 7 82 682 54 2.500000e+00 0.346 slower 1 2.689591e+06 2.689595e+06 3.875
13 irregular 7 83 683 66 1.500000e+00 0.397 faster 1 2.689597e+06 2.689599e+06 2.353
13 irregular 7 84 684 65 2 0.344 faster 1 2.689600e+06 2.689603e+06 3.218
13 irregular 7 85 685 55 3 0.138 faster 0 2.689605e+06 2.689608e+06 3.747
13 irregular 7 86 686 54 1.500000e+00 0.449 faster 0 2.689610e+06 2.689612e+06 2.377
13 irregular 7 87 687 67 3 0.111 faster 1 2.689613e+06 2.689617e+06 3.938
13 irregular 7 88 688 66 3 0.288 faster 1 2.689618e+06 2.689622e+06 3.807
13 irregular 7 89 689 54 2 0.325 faster 0 2.689623e+06 2.689626e+06 2.890
13 irregular 7 90 690 67 1 0.584 faster 1 2.689627e+06 2.689629e+06 1.807
13 irregular 7 91 691 54 1 0.354 faster 0 2.689631e+06 2.689632e+06 1.750
13 irregular 7 92 692 67 2.500000e+00 0.192 faster 1 2.689634e+06 2.689638e+06 4.108
13 irregular 7 93 693 67 1 0.481 faster 1 2.689639e+06 2.689643e+06 3.907
13 irregular 7 94 694 66 3 0.425 faster 1 2.689645e+06 2.689649e+06 3.959
13 irregular 7 95 695 54 1.500000e+00 0.204 faster 0 2.689650e+06 2.689652e+06 2.386
13 irregular 7 96 696 53 1 0.123 faster 0 2.689654e+06 2.689656e+06 2.352
13 irregular 7 97 697 52 2 0.218 faster 0 2.689657e+06 2.689660e+06 2.870
13 irregular 7 98 698 51 1.500000e+00 0.545 faster 0 2.689662e+06 2.689664e+06 2.215
13 irregular 7 99 699 70 2.500000e+00 0.389 faster 1 2.689665e+06 2.689668e+06 3.079
13 irregular 7 100 700 51 3 0.312 faster 0 2.689669e+06 2.689673e+06 3.877
13 regular 8 1 701 50 1.500000e+00 0.493 slower 1 2.689851e+06 2.689853e+06 2.291
13 regular 8 2 702 50 1.500000e+00 0.266 slower 1 2.689854e+06 2.689857e+06 2.530
13 regular 8 3 703 69 1.500000e+00 0.136 slower 0 2.689858e+06 2.689861e+06 2.816
13 regular 8 4 704 70 1.500000e+00 0.582 slower 0 2.689863e+06 2.689865e+06 2.159
13 regular 8 5 705 71 1.500000e+00 0.236 slower 0 2.689866e+06 2.689868e+06 2.377
13 regular 8 6 706 72 1.500000e+00 0.364 slower 0 2.689870e+06 2.689872e+06 2.232
13 regular 8 7 707 73 1.500000e+00 0.142 slower 0 2.689873e+06 2.689876e+06 2.579
13 regular 8 8 708 46 1.500000e+00 0.288 slower 1 2.689877e+06 2.689879e+06 2.284
13 regular 8 9 709 74 1.500000e+00 0.239 faster 1 2.689880e+06 2.689882e+06 2.320
13 regular 8 10 710 73 1.500000e+00 0.244 faster 1 2.689884e+06 2.689887e+06 3.447
13 regular 8 11 711 73 1.500000e+00 0.251 faster 1 2.689888e+06 2.689890e+06 2.359
13 regular 8 12 712 72 1.500000e+00 0.105 faster 1 2.689891e+06 2.689894e+06 2.276
13 regular 8 13 713 48 1.500000e+00 0.396 faster 0 2.689895e+06 2.689898e+06 3.612
13 regular 8 14 714 73 1.500000e+00 0.486 slower 0 2.689900e+06 2.689902e+06 2.319
13 regular 8 15 715 46 1.500000e+00 0.290 slower 1 2.689904e+06 2.689906e+06 2.203
13 regular 8 16 716 47 1.500000e+00 0.201 slower 1 2.689907e+06 2.689910e+06 2.431
13 regular 8 17 717 73 1.500000e+00 0.327 slower 0 2.689911e+06 2.689913e+06 2.202
13 regular 8 18 718 74 1.500000e+00 0.314 slower 0 2.689915e+06 2.689917e+06 2.536
13 regular 8 19 719 45 1.500000e+00 0.367 slower 1 2.689919e+06 2.689921e+06 2.791
13 regular 8 20 720 74 1.500000e+00 0.314 slower 0 2.689923e+06 2.689926e+06 3.004
13 regular 8 21 721 75 1.500000e+00 0.113 faster 1 2.689927e+06 2.689930e+06 3.075
13 regular 8 22 722 75 1.500000e+00 0.155 faster 1 2.689931e+06 2.689934e+06 2.969
13 regular 8 23 723 74 1.500000e+00 0.226 faster 1 2.689935e+06 2.689938e+06 3.144
13 regular 8 24 724 74 1.500000e+00 0.113 slower 0 2.689939e+06 2.689941e+06 1.968
13 regular 8 25 725 45 1.500000e+00 0.150 slower 1 2.689943e+06 2.689945e+06 2.302
13 regular 8 26 726 74 1.500000e+00 0.257 slower 0 2.689946e+06 2.689949e+06 2.819
13 regular 8 27 727 45 1.500000e+00 0.580 slower 1 2.689950e+06 2.689952e+06 2.102
13 regular 8 28 728 45 1.500000e+00 0.368 slower 1 2.689953e+06 2.689956e+06 2.103
13 regular 8 29 729 46 1.500000e+00 0.401 slower 1 2.689957e+06 2.689959e+06 2.033
13 regular 8 30 730 46 1.500000e+00 0.425 slower 1 2.689960e+06 2.689962e+06 2.157
13 regular 8 31 731 47 1.500000e+00 0.340 slower 1 2.689963e+06 2.689966e+06 2.259
13 regular 8 32 732 73 1.500000e+00 0.532 slower 0 2.689967e+06 2.689969e+06 2.583
13 regular 8 33 733 46 1.500000e+00 0.420 slower 1 2.689970e+06 2.689973e+06 2.217
13 regular 8 34 734 73 1.500000e+00 0.599 slower 0 2.689974e+06 2.689977e+06 2.245
13 regular 8 35 735 74 1.500000e+00 0.499 slower 0 2.689978e+06 2.689980e+06 2.199
13 regular 8 36 736 75 1.500000e+00 0.595 slower 0 2.689982e+06 2.689984e+06 2.491
13 regular 8 37 737 76 1.500000e+00 0.234 slower 0 2.689985e+06 2.689988e+06 2.887
13 regular 8 38 738 43 1.500000e+00 0.166 slower 1 2.689990e+06 2.689992e+06 2.256
13 regular 8 39 739 43 1.500000e+00 0.460 slower 1 2.689993e+06 2.689995e+06 2.106
13 regular 8 40 740 44 1.500000e+00 0.253 slower 1 2.689997e+06 2.689999e+06 2.082
13 regular 8 41 741 76 1.500000e+00 0.387 slower 0 2.690000e+06 2.690002e+06 2.326
13 regular 8 42 742 77 1.500000e+00 0.182 slower 0 2.690003e+06 2.690006e+06 2.988
13 regular 8 43 743 42 1.500000e+00 0.226 slower 1 2.690007e+06 2.690009e+06 2.088
13 regular 8 44 744 43 1.500000e+00 0.266 slower 1 2.690010e+06 2.690012e+06 2.128
13 regular 8 45 745 77 1.500000e+00 0.338 slower 0 2.690014e+06 2.690018e+06 3.633
13 regular 8 46 746 78 1.500000e+00 0.430 faster 1 2.690019e+06 2.690021e+06 2.138
13 regular 8 47 747 77 1.500000e+00 0.308 faster 1 2.690022e+06 2.690025e+06 2.944
13 regular 8 48 748 77 1.500000e+00 0.271 faster 1 2.690026e+06 2.690028e+06 2.070
13 regular 8 49 749 44 1.500000e+00 0.226 slower 1 2.690030e+06 2.690032e+06 2.102
13 regular 8 50 750 44 1.500000e+00 0.102 slower 1 2.690034e+06 2.690036e+06 2.422
13 regular 8 51 751 45 1.500000e+00 0.275 slower 1 2.690037e+06 2.690040e+06 2.624
13 regular 8 52 752 75 1.500000e+00 0.389 faster 1 2.690042e+06 2.690044e+06 2.435
13 regular 8 53 753 74 1.500000e+00 0.434 slower 0 2.690046e+06 2.690048e+06 2.085
13 regular 8 54 754 45 1.500000e+00 0.588 slower 1 2.690049e+06 2.690051e+06 2.178
13 regular 8 55 755 75 1.500000e+00 0.265 slower 0 2.690052e+06 2.690055e+06 2.501
13 regular 8 56 756 44 1.500000e+00 0.571 slower 1 2.690056e+06 2.690058e+06 2.284
13 regular 8 57 757 75 1.500000e+00 0.141 faster 1 2.690059e+06 2.690062e+06 2.611
13 regular 8 58 758 45 1.500000e+00 0.396 slower 1 2.690063e+06 2.690065e+06 2.116
13 regular 8 59 759 74 1.500000e+00 0.214 slower 0 2.690067e+06 2.690069e+06 2.289
13 regular 8 60 760 45 1.500000e+00 0.585 slower 1 2.690071e+06 2.690073e+06 2.615
13 regular 8 61 761 45 1.500000e+00 0.396 slower 1 2.690074e+06 2.690077e+06 2.199
13 regular 8 62 762 74 1.500000e+00 0.358 faster 1 2.690078e+06 2.690082e+06 3.419
13 regular 8 63 763 46 1.500000e+00 0.591 slower 1 2.690083e+06 2.690085e+06 2.113
13 regular 8 64 764 73 1.500000e+00 0.248 slower 0 2.690086e+06 2.690089e+06 2.553
13 regular 8 65 765 46 1.500000e+00 0.216 slower 1 2.690090e+06 2.690092e+06 2.225
13 regular 8 66 766 46 1.500000e+00 0.247 slower 1 2.690093e+06 2.690095e+06 2.039
13 regular 8 67 767 47 1.500000e+00 0.156 slower 1 2.690096e+06 2.690098e+06 2.175
13 regular 8 68 768 73 1.500000e+00 0.366 faster 1 2.690099e+06 2.690102e+06 2.456
13 regular 8 69 769 72 1.500000e+00 0.165 slower 0 2.690103e+06 2.690105e+06 2.227
13 regular 8 70 770 47 1.500000e+00 0.596 slower 1 2.690106e+06 2.690109e+06 2.239
13 regular 8 71 771 73 1.500000e+00 0.428 slower 0 2.690110e+06 2.690112e+06 2.637
13 regular 8 72 772 46 1.500000e+00 0.538 slower 1 2.690114e+06 2.690116e+06 2.664
13 regular 8 73 773 73 1.500000e+00 0.195 faster 1 2.690117e+06 2.690121e+06 3.237
13 regular 8 74 774 47 1.500000e+00 0.401 slower 1 2.690122e+06 2.690124e+06 2.084
13 regular 8 75 775 48 1.500000e+00 0.106 slower 1 2.690125e+06 2.690128e+06 2.673
13 regular 8 76 776 48 1.500000e+00 0.518 slower 1 2.690129e+06 2.690131e+06 2.260
13 regular 8 77 777 49 1.500000e+00 0.498 slower 1 2.690133e+06 2.690135e+06 2.371
13 regular 8 78 778 49 1.500000e+00 0.123 slower 1 2.690136e+06 2.690139e+06 2.697
13 regular 8 79 779 50 1.500000e+00 0.414 none 2 2.690140e+06 2.690145e+06 4.500
13 regular 8 80 780 70 1.500000e+00 0.400 faster 1 2.690146e+06 2.690148e+06 2.447
13 regular 8 81 781 50 1.500000e+00 0.402 faster 0 2.690149e+06 2.690152e+06 2.870
13 regular 8 82 782 49 1.500000e+00 0.257 faster 0 2.690153e+06 2.690156e+06 2.431
13 regular 8 83 783 72 1.500000e+00 0.133 faster 1 2.690157e+06 2.690160e+06 2.584
13 regular 8 84 784 49 1.500000e+00 0.586 faster 0 2.690161e+06 2.690164e+06 2.270
13 regular 8 85 785 72 1.500000e+00 0.279 faster 1 2.690164e+06 2.690167e+06 2.284
13 regular 8 86 786 72 1.500000e+00 0.504 faster 1 2.690168e+06 2.690170e+06 2.210
13 regular 8 87 787 49 1.500000e+00 0.568 faster 0 2.690172e+06 2.690174e+06 2.160
13 regular 8 88 788 72 1.500000e+00 0.284 faster 1 2.690176e+06 2.690178e+06 2.197
13 regular 8 89 789 48 1.500000e+00 0.208 faster 0 2.690179e+06 2.690182e+06 2.725
13 regular 8 90 790 73 1.500000e+00 0.488 slower 0 2.690183e+06 2.690186e+06 3.151
13 regular 8 91 791 46 1.500000e+00 0.260 slower 1 2.690189e+06 2.690191e+06 2.653
13 regular 8 92 792 73 1.500000e+00 0.598 faster 1 2.690193e+06 2.690196e+06 2.546
13 regular 8 93 793 47 1.500000e+00 0.448 slower 1 2.690197e+06 2.690200e+06 2.482
13 regular 8 94 794 48 1.500000e+00 0.267 slower 1 2.690201e+06 2.690204e+06 2.408
13 regular 8 95 795 72 1.500000e+00 0.536 slower 0 2.690206e+06 2.690208e+06 2.196
13 regular 8 96 796 73 1.500000e+00 0.308 faster 1 2.690209e+06 2.690211e+06 2.351
13 regular 8 97 797 72 1.500000e+00 0.489 faster 1 2.690213e+06 2.690216e+06 2.804
13 regular 8 98 798 48 1.500000e+00 0.462 faster 0 2.690217e+06 2.690220e+06 2.123
13 regular 8 99 799 47 1.500000e+00 0.365 slower 1 2.690221e+06 2.690223e+06 2.309
13 regular 8 100 800 48 1.500000e+00 0.242 slower 1 2.690224e+06 2.690228e+06 3.206
13 irregular 9 1 801 48 3 0.164 faster 0 2.690519e+06 2.690522e+06 3.591
13 irregular 9 2 802 73 1 0.560 faster 1 2.690524e+06 2.690526e+06 1.743
13 irregular 9 3 803 72 1.500000e+00 0.309 faster 1 2.690527e+06 2.690529e+06 1.999
13 irregular 9 4 804 48 1 0.505 faster 0 2.690530e+06 2.690532e+06 1.581
13 irregular 9 5 805 47 3 0.558 faster 0 2.690534e+06 2.690537e+06 3.508
13 irregular 9 6 806 74 3 0.263 faster 1 2.690539e+06 2.690542e+06 3.557
13 irregular 9 7 807 47 2.500000e+00 0.156 faster 0 2.690544e+06 2.690547e+06 3.017
13 irregular 9 8 808 74 3 0.463 faster 1 2.690548e+06 2.690552e+06 3.680
13 irregular 9 9 809 46 1 0.143 faster 0 2.690553e+06 2.690554e+06 1.666
13 irregular 9 10 810 75 1.500000e+00 0.391 faster 1 2.690556e+06 2.690558e+06 2.120
13 irregular 9 11 811 46 3 0.473 faster 0 2.690560e+06 2.690563e+06 3.770
13 irregular 9 12 812 75 2.500000e+00 0.468 faster 1 2.690565e+06 2.690568e+06 3.217
13 irregular 9 13 813 45 2 0.554 faster 0 2.690570e+06 2.690572e+06 2.607
13 irregular 9 14 814 44 1.500000e+00 0.165 faster 0 2.690573e+06 2.690577e+06 3.371
13 irregular 9 15 815 43 1 0.231 faster 0 2.690578e+06 2.690579e+06 1.766
13 irregular 9 16 816 42 2.500000e+00 0.317 faster 0 2.690580e+06 2.690584e+06 3.400
13 irregular 9 17 817 79 1 0.523 faster 1 2.690585e+06 2.690587e+06 1.608
13 irregular 9 18 818 78 2.500000e+00 0.261 faster 1 2.690588e+06 2.690594e+06 5.188
13 irregular 9 19 819 42 1 0.493 faster 0 2.690595e+06 2.690599e+06 3.403
13 irregular 9 20 820 41 2.500000e+00 0.571 slower 1 2.690600e+06 2.690603e+06 3.282
13 irregular 9 21 821 78 2.500000e+00 0.505 faster 1 2.690605e+06 2.690608e+06 3.460
13 irregular 9 22 822 42 1 0.528 slower 1 2.690609e+06 2.690612e+06 2.676
13 irregular 9 23 823 77 2 0.478 faster 1 2.690614e+06 2.690616e+06 2.612
13 irregular 9 24 824 77 2 0.337 faster 1 2.690618e+06 2.690621e+06 3.372
13 irregular 9 25 825 44 2.500000e+00 0.457 slower 1 2.690623e+06 2.690626e+06 3.232
13 irregular 9 26 826 76 1.500000e+00 0.477 faster 1 2.690628e+06 2.690630e+06 2.373
13 irregular 9 27 827 75 2.500000e+00 0.405 faster 1 2.690632e+06 2.690635e+06 3.161
13 irregular 9 28 828 75 1 0.164 faster 1 2.690637e+06 2.690638e+06 1.759
13 irregular 9 29 829 46 3 0.280 slower 1 2.690640e+06 2.690643e+06 3.605
13 irregular 9 30 830 46 1.500000e+00 0.252 slower 1 2.690645e+06 2.690647e+06 2.218
13 irregular 9 31 831 73 3 0.541 faster 1 2.690649e+06 2.690653e+06 3.653
13 irregular 9 32 832 73 3 0.237 faster 1 2.690654e+06 2.690658e+06 3.727
13 irregular 9 33 833 48 1 0.198 faster 0 2.690659e+06 2.690661e+06 2.309
13 irregular 9 34 834 47 1.500000e+00 0.385 slower 1 2.690663e+06 2.690665e+06 2.562
13 irregular 9 35 835 47 1 0.558 faster 0 2.690667e+06 2.690669e+06 1.796
13 irregular 9 36 836 74 2 0.473 faster 1 2.690670e+06 2.690673e+06 3.036
13 irregular 9 37 837 47 3 0.316 slower 1 2.690675e+06 2.690679e+06 3.651
13 irregular 9 38 838 47 1.500000e+00 0.245 faster 0 2.690680e+06 2.690683e+06 2.824
13 irregular 9 39 839 46 2 0.323 slower 1 2.690684e+06 2.690688e+06 3.120
13 irregular 9 40 840 73 2 0.403 faster 1 2.690689e+06 2.690692e+06 2.622
13 irregular 9 41 841 47 1.500000e+00 0.276 slower 1 2.690693e+06 2.690695e+06 2.441
13 irregular 9 42 842 48 1 0.438 faster 0 2.690698e+06 2.690700e+06 2.341
13 irregular 9 43 843 47 1.500000e+00 0.201 slower 1 2.690701e+06 2.690704e+06 2.226
13 irregular 9 44 844 47 3 0.152 slower 1 2.690705e+06 2.690709e+06 4.198
13 irregular 9 45 845 48 2 0.187 slower 1 2.690710e+06 2.690713e+06 2.923
13 irregular 9 46 846 72 1.500000e+00 0.422 faster 1 2.690715e+06 2.690717e+06 2.112
13 irregular 9 47 847 49 1.500000e+00 0.545 faster 0 2.690718e+06 2.690721e+06 2.561
13 irregular 9 48 848 48 3 0.322 faster 0 2.690722e+06 2.690726e+06 3.806
13 irregular 9 49 849 47 3 0.579 slower 1 2.690728e+06 2.690732e+06 3.863
13 irregular 9 50 850 47 2.500000e+00 0.327 none 2 2.690733e+06 2.690738e+06 5.499
13 irregular 9 51 851 73 3 0.411 faster 1 2.690739e+06 2.690743e+06 3.822
13 irregular 9 52 852 72 1 0.291 faster 1 2.690745e+06 2.690747e+06 2.753
13 irregular 9 53 853 72 2.500000e+00 0.389 faster 1 2.690749e+06 2.690752e+06 3.148
13 irregular 9 54 854 71 3 0.300 faster 1 2.690753e+06 2.690757e+06 3.641
13 irregular 9 55 855 71 1 0.170 faster 1 2.690758e+06 2.690760e+06 1.706
13 irregular 9 56 856 70 2 0.457 faster 1 2.690761e+06 2.690763e+06 2.617
13 irregular 9 57 857 50 2 0.514 faster 0 2.690765e+06 2.690768e+06 2.881
13 irregular 9 58 858 71 1.500000e+00 0.498 faster 1 2.690770e+06 2.690772e+06 2.129
13 irregular 9 59 859 70 1 0.218 faster 1 2.690773e+06 2.690775e+06 1.678
13 irregular 9 60 860 50 2.500000e+00 0.424 faster 0 2.690776e+06 2.690779e+06 3.031
13 irregular 9 61 861 49 1.500000e+00 0.114 faster 0 2.690780e+06 2.690783e+06 2.104
13 irregular 9 62 862 72 1 0.346 faster 1 2.690784e+06 2.690786e+06 1.804
13 irregular 9 63 863 49 2.500000e+00 0.180 faster 0 2.690787e+06 2.690790e+06 3.256
13 irregular 9 64 864 48 1 0.331 faster 0 2.690792e+06 2.690793e+06 1.659
13 irregular 9 65 865 73 1.500000e+00 0.408 faster 1 2.690795e+06 2.690797e+06 2.187
13 irregular 9 66 866 73 2 0.220 faster 1 2.690798e+06 2.690800e+06 2.560
13 irregular 9 67 867 48 2.500000e+00 0.171 faster 0 2.690801e+06 2.690804e+06 3.340
13 irregular 9 68 868 73 2 0.120 faster 1 2.690805e+06 2.690808e+06 2.866
13 irregular 9 69 869 73 3 0.516 faster 1 2.690809e+06 2.690813e+06 3.578
13 irregular 9 70 870 72 2.500000e+00 0.239 faster 1 2.690814e+06 2.690817e+06 2.994
13 irregular 9 71 871 72 3 0.176 faster 1 2.690818e+06 2.690822e+06 3.683
13 irregular 9 72 872 49 2 0.350 faster 0 2.690823e+06 2.690826e+06 2.520
13 irregular 9 73 873 48 2.500000e+00 0.392 slower 1 2.690827e+06 2.690830e+06 3.217
13 irregular 9 74 874 72 2 0.143 faster 1 2.690832e+06 2.690835e+06 3.101
13 irregular 9 75 875 71 3 0.588 faster 1 2.690836e+06 2.690840e+06 3.661
13 irregular 9 76 876 71 2.500000e+00 0.406 faster 1 2.690842e+06 2.690845e+06 3.235
13 irregular 9 77 877 50 2.500000e+00 0.571 faster 0 2.690847e+06 2.690850e+06 3.142
13 irregular 9 78 878 71 1.500000e+00 0.226 faster 1 2.690852e+06 2.690854e+06 2.393
13 irregular 9 79 879 49 1.500000e+00 0.430 faster 0 2.690855e+06 2.690858e+06 2.216
13 irregular 9 80 880 72 1 0.305 faster 1 2.690859e+06 2.690861e+06 1.625
13 irregular 9 81 881 49 3 0.253 slower 1 2.690862e+06 2.690866e+06 3.659
13 irregular 9 82 882 71 2.500000e+00 0.305 faster 1 2.690867e+06 2.690870e+06 3.281
13 irregular 9 83 883 70 2.500000e+00 0.327 slower 0 2.690872e+06 2.690876e+06 4.125
13 irregular 9 84 884 71 2.500000e+00 0.354 faster 1 2.690877e+06 2.690881e+06 3.390
13 irregular 9 85 885 49 1.500000e+00 0.344 faster 0 2.690882e+06 2.690885e+06 3.104
13 irregular 9 86 886 72 1 0.147 faster 1 2.690886e+06 2.690890e+06 3.708
13 irregular 9 87 887 71 3 0.416 faster 1 2.690891e+06 2.690895e+06 3.633
13 irregular 9 88 888 71 1.500000e+00 0.265 none 2 2.690896e+06 2.690901e+06 4.500
13 irregular 9 89 889 71 2 0.177 faster 1 2.690901e+06 2.690904e+06 2.556
13 irregular 9 90 890 50 3 0.196 none 2 2.690905e+06 2.690911e+06 5.999
13 irregular 9 91 891 50 2 0.488 slower 1 2.690913e+06 2.690916e+06 3.253
13 irregular 9 92 892 50 2 0.367 slower 1 2.690917e+06 2.690920e+06 2.787
13 irregular 9 93 893 51 1 0.427 slower 1 2.690922e+06 2.690924e+06 1.677
13 irregular 9 94 894 51 2 0.388 slower 1 2.690926e+06 2.690928e+06 2.738
13 irregular 9 95 895 52 2 0.335 slower 1 2.690930e+06 2.690933e+06 2.804
13 irregular 9 96 896 52 2 0.427 slower 1 2.690934e+06 2.690937e+06 2.666
13 irregular 9 97 897 67 2 0.413 slower 0 2.690938e+06 2.690941e+06 2.915
13 irregular 9 98 898 68 1.500000e+00 0.166 slower 0 2.690942e+06 2.690945e+06 2.481
13 irregular 9 99 899 69 1 0.320 faster 1 2.690947e+06 2.690949e+06 2.130
13 irregular 9 100 900 69 1.500000e+00 0.588 slower 0 2.690951e+06 2.690954e+06 2.958
13 regular 10 1 901 50 2 0.249 faster 0 2.690974e+06 2.690977e+06 2.585
13 regular 10 2 902 71 2 0.449 faster 1 2.690978e+06 2.690981e+06 2.498
13 regular 10 3 903 70 2 0.497 faster 1 2.690983e+06 2.690986e+06 2.720
13 regular 10 4 904 70 2 0.231 faster 1 2.690988e+06 2.690991e+06 2.887
13 regular 10 5 905 69 2 0.302 faster 1 2.690993e+06 2.690996e+06 2.778
13 regular 10 6 906 51 2 0.337 faster 0 2.690998e+06 2.691001e+06 3.242
13 regular 10 7 907 50 2 0.118 faster 0 2.691003e+06 2.691006e+06 2.979
13 regular 10 8 908 49 2 0.333 faster 0 2.691007e+06 2.691010e+06 2.788
13 regular 10 9 909 72 2 0.303 faster 1 2.691011e+06 2.691014e+06 2.603
13 regular 10 10 910 71 2 0.478 faster 1 2.691015e+06 2.691018e+06 2.747
13 regular 10 11 911 49 2 0.458 faster 0 2.691019e+06 2.691022e+06 2.678
13 regular 10 12 912 48 2 0.384 slower 1 2.691024e+06 2.691026e+06 2.546
13 regular 10 13 913 71 2 0.164 slower 0 2.691027e+06 2.691031e+06 3.323
13 regular 10 14 914 48 2 0.460 faster 0 2.691032e+06 2.691035e+06 3.063
13 regular 10 15 915 47 2 0.329 slower 1 2.691037e+06 2.691040e+06 2.935
13 regular 10 16 916 73 2 0.278 slower 0 2.691041e+06 2.691046e+06 4.456
13 regular 10 17 917 46 2 0.338 slower 1 2.691047e+06 2.691050e+06 3.023
13 regular 10 18 918 47 2 0.329 slower 1 2.691052e+06 2.691055e+06 3.230
13 regular 10 19 919 47 2 0.308 slower 1 2.691056e+06 2.691060e+06 3.281
13 regular 10 20 920 72 2 0.490 slower 0 2.691061e+06 2.691065e+06 3.401
13 regular 10 21 921 73 2 0.585 faster 1 2.691068e+06 2.691070e+06 2.831
13 regular 10 22 922 73 2 0.122 faster 1 2.691072e+06 2.691075e+06 3.039
13 regular 10 23 923 72 2 0.343 faster 1 2.691076e+06 2.691079e+06 2.799
13 regular 10 24 924 48 2 0.139 slower 1 2.691080e+06 2.691083e+06 3.087
13 regular 10 25 925 49 2 0.512 faster 0 2.691085e+06 2.691088e+06 3.066
13 regular 10 26 926 72 2 0.561 faster 1 2.691090e+06 2.691092e+06 2.663
13 regular 10 27 927 48 2 0.299 slower 1 2.691094e+06 2.691097e+06 2.992
13 regular 10 28 928 49 2 0.390 slower 1 2.691098e+06 2.691101e+06 3.051
13 regular 10 29 929 71 2 0.554 slower 0 2.691103e+06 2.691106e+06 2.726
13 regular 10 30 930 48 2 0.128 slower 1 2.691107e+06 2.691110e+06 2.877
13 regular 10 31 931 49 2 0.151 slower 1 2.691111e+06 2.691114e+06 2.868
13 regular 10 32 932 71 2 0.333 slower 0 2.691115e+06 2.691118e+06 2.732
13 regular 10 33 933 72 2 0.596 slower 0 2.691120e+06 2.691123e+06 2.798
13 regular 10 34 934 73 2 0.546 slower 0 2.691124e+06 2.691127e+06 2.855
13 regular 10 35 935 46 2 0.213 slower 1 2.691128e+06 2.691132e+06 3.290
13 regular 10 36 936 73 2 0.228 faster 1 2.691133e+06 2.691136e+06 3.127
13 regular 10 37 937 73 2 0.417 faster 1 2.691137e+06 2.691140e+06 2.925
13 regular 10 38 938 48 2 0.184 faster 0 2.691141e+06 2.691144e+06 2.658
13 regular 10 39 939 73 2 0.384 faster 1 2.691145e+06 2.691148e+06 3.047
13 regular 10 40 940 47 2 0.429 faster 0 2.691150e+06 2.691154e+06 3.492
13 regular 10 41 941 74 2 0.597 faster 1 2.691156e+06 2.691158e+06 2.853
13 regular 10 42 942 73 2 0.359 none 2 2.691159e+06 2.691164e+06 4.999
13 regular 10 43 943 73 2 0.385 faster 1 2.691165e+06 2.691169e+06 3.067
13 regular 10 44 944 73 2 0.105 faster 1 2.691170e+06 2.691173e+06 3.473
13 regular 10 45 945 48 2 0.525 faster 0 2.691175e+06 2.691178e+06 2.924
13 regular 10 46 946 73 2 0.282 faster 1 2.691179e+06 2.691182e+06 2.886
13 regular 10 47 947 47 2 0.422 slower 1 2.691184e+06 2.691186e+06 2.818
13 regular 10 48 948 48 2 0.488 none 2 2.691189e+06 2.691194e+06 4.999
13 regular 10 49 949 72 2 0.177 none 2 2.691194e+06 2.691199e+06 4.999
13 regular 10 50 950 72 2 0.584 none 2 2.691201e+06 2.691206e+06 4.999
13 regular 10 51 951 48 2 0.337 none 2 2.691207e+06 2.691212e+06 4.999
13 regular 10 52 952 48 2 0.152 none 2 2.691212e+06 2.691217e+06 4.999
13 regular 10 53 953 48 2 0.312 none 2 2.691218e+06 2.691223e+06 5.000
13 regular 10 54 954 48 2 0.344 none 2 2.691224e+06 2.691229e+06 4.999
13 regular 10 55 955 72 2 0.346 faster 1 2.691230e+06 2.691234e+06 3.272
13 regular 10 56 956 48 2 0.464 faster 0 2.691235e+06 2.691238e+06 2.770
13 regular 10 57 957 73 2 0.499 faster 1 2.691240e+06 2.691244e+06 3.660
13 regular 10 58 958 48 2 0.308 slower 1 2.691245e+06 2.691248e+06 2.757
13 regular 10 59 959 72 2 0.496 faster 1 2.691250e+06 2.691253e+06 3.081
13 regular 10 60 960 71 2 0.213 faster 1 2.691254e+06 2.691257e+06 2.990
13 regular 10 61 961 49 2 0.130 faster 0 2.691258e+06 2.691261e+06 2.811
13 regular 10 62 962 72 2 0.259 faster 1 2.691262e+06 2.691266e+06 3.989
13 regular 10 63 963 49 2 0.275 faster 0 2.691267e+06 2.691270e+06 3.139
13 regular 10 64 964 72 2 0.471 faster 1 2.691272e+06 2.691275e+06 2.611
13 regular 10 65 965 48 2 0.363 slower 1 2.691276e+06 2.691279e+06 2.824
13 regular 10 66 966 71 2 0.119 faster 1 2.691280e+06 2.691283e+06 2.788
13 regular 10 67 967 71 2 0.235 faster 1 2.691284e+06 2.691287e+06 3.001
13 regular 10 68 968 70 2 0.157 faster 1 2.691288e+06 2.691290e+06 2.791
13 regular 10 69 969 50 2 0.403 faster 0 2.691291e+06 2.691294e+06 2.836
13 regular 10 70 970 49 2 0.313 faster 0 2.691295e+06 2.691298e+06 2.694
13 regular 10 71 971 72 2 0.145 faster 1 2.691299e+06 2.691302e+06 2.634
13 regular 10 72 972 49 2 0.510 faster 0 2.691303e+06 2.691306e+06 2.782
13 regular 10 73 973 48 2 0.488 slower 1 2.691308e+06 2.691311e+06 3.050
13 regular 10 74 974 72 2 0.182 faster 1 2.691312e+06 2.691315e+06 2.652
13 regular 10 75 975 49 2 0.547 slower 1 2.691316e+06 2.691319e+06 2.545
13 regular 10 76 976 49 2 0.413 slower 1 2.691321e+06 2.691324e+06 3.464
13 regular 10 77 977 50 2 0.599 faster 0 2.691326e+06 2.691329e+06 2.520
13 regular 10 78 978 71 2 0.203 faster 1 2.691330e+06 2.691333e+06 3.238
13 regular 10 79 979 49 2 0.476 slower 1 2.691335e+06 2.691339e+06 3.801
13 regular 10 80 980 70 2 0.187 slower 0 2.691340e+06 2.691345e+06 4.875
13 regular 10 81 981 49 2 0.270 faster 0 2.691348e+06 2.691351e+06 2.872
13 regular 10 82 982 72 2 0.180 slower 0 2.691352e+06 2.691357e+06 4.809
13 regular 10 83 983 73 2 0.389 faster 1 2.691359e+06 2.691362e+06 3.233
13 regular 10 84 984 47 2 0.267 faster 0 2.691363e+06 2.691366e+06 2.902
13 regular 10 85 985 46 2 0.356 faster 0 2.691367e+06 2.691370e+06 2.918
13 regular 10 86 986 75 2 0.244 faster 1 2.691372e+06 2.691375e+06 2.978
13 regular 10 87 987 74 2 0.596 faster 1 2.691376e+06 2.691380e+06 3.636
13 regular 10 88 988 46 2 0.178 slower 1 2.691381e+06 2.691385e+06 3.710
13 regular 10 89 989 73 2 0.221 faster 1 2.691386e+06 2.691389e+06 2.857
13 regular 10 90 990 73 2 0.264 faster 1 2.691391e+06 2.691394e+06 3.016
13 regular 10 91 991 48 2 0.277 slower 1 2.691394e+06 2.691398e+06 3.121
13 regular 10 92 992 48 2 0.291 slower 1 2.691398e+06 2.691402e+06 3.335
13 regular 10 93 993 71 2 0.400 faster 1 2.691403e+06 2.691406e+06 2.863
13 regular 10 94 994 49 2 0.428 slower 1 2.691407e+06 2.691411e+06 3.876
13 regular 10 95 995 70 2 0.564 slower 0 2.691413e+06 2.691417e+06 3.589
13 regular 10 96 996 71 2 0.572 faster 1 2.691418e+06 2.691421e+06 2.959
13 regular 10 97 997 49 2 0.546 faster 0 2.691422e+06 2.691426e+06 3.304
13 regular 10 98 998 48 2 0.231 slower 1 2.691427e+06 2.691430e+06 2.968
13 regular 10 99 999 49 2 0.549 slower 1 2.691431e+06 2.691435e+06 3.607
13 regular 10 100 1000 71 2 0.254 faster 1 2.691436e+06 2.691438e+06 2.840
