subNo condition blockNo trialNo trialID currentFrequency cueTargetInterval randomPreCueInterval response responseAccuracy startTime responseTime RT
19 irregular 1 1 1 49 1 0.370 faster 0 3.278565e+06 3.278567e+06 1.946
19 irregular 1 2 2 73 1 0.289 faster 1 3.278568e+06 3.278570e+06 1.694
19 irregular 1 3 3 73 2 0.106 faster 1 3.278570e+06 3.278573e+06 2.680
19 irregular 1 4 4 49 1 0.488 faster 0 3.278574e+06 3.278576e+06 2.041
19 irregular 1 5 5 73 1 0.570 faster 1 3.278577e+06 3.278579e+06 1.626
19 irregular 1 6 6 47 3 0.385 slower 1 3.278581e+06 3.278584e+06 3.666
19 irregular 1 7 7 71 2.500000e+00 0.446 faster 1 3.278585e+06 3.278589e+06 3.372
19 irregular 1 8 8 71 3 0.545 faster 1 3.278590e+06 3.278594e+06 3.855
19 irregular 1 9 9 50 3 0.568 slower 1 3.278596e+06 3.278600e+06 3.610
19 irregular 1 10 10 50 2 0.440 faster 0 3.278601e+06 3.278604e+06 2.717
19 irregular 1 11 11 49 1.500000e+00 0.428 slower 1 3.278605e+06 3.278607e+06 2.381
19 irregular 1 12 12 70 3 0.408 faster 1 3.278608e+06 3.278612e+06 3.642
19 irregular 1 13 13 70 1 0.563 faster 1 3.278614e+06 3.278616e+06 1.963
19 irregular 1 14 14 51 1 0.303 faster 0 3.278617e+06 3.278618e+06 1.752
19 irregular 1 15 15 70 2 0.575 faster 1 3.278620e+06 3.278622e+06 2.691
19 irregular 1 16 16 70 2.500000e+00 0.549 faster 1 3.278624e+06 3.278627e+06 3.129
19 irregular 1 17 17 69 2 0.448 faster 1 3.278628e+06 3.278631e+06 2.608
19 irregular 1 18 18 69 2.500000e+00 0.146 faster 1 3.278632e+06 3.278635e+06 3.150
19 irregular 1 19 19 52 3 0.263 slower 1 3.278636e+06 3.278640e+06 3.593
19 irregular 1 20 20 68 2.500000e+00 0.152 slower 0 3.278641e+06 3.278644e+06 3.282
19 irregular 1 21 21 69 1.500000e+00 0.300 faster 1 3.278645e+06 3.278648e+06 2.193
19 irregular 1 22 22 68 1 0.597 slower 0 3.278649e+06 3.278651e+06 1.849
19 irregular 1 23 23 51 2 0.110 slower 1 3.278651e+06 3.278654e+06 2.612
19 irregular 1 24 24 51 2.500000e+00 0.576 slower 1 3.278656e+06 3.278659e+06 3.141
19 irregular 1 25 25 52 3 0.105 faster 0 3.278660e+06 3.278663e+06 3.561
19 irregular 1 26 26 69 1.500000e+00 0.470 faster 1 3.278665e+06 3.278667e+06 2.071
19 irregular 1 27 27 51 2.500000e+00 0.448 slower 1 3.278668e+06 3.278671e+06 3.178
19 irregular 1 28 28 52 1.500000e+00 0.442 slower 1 3.278673e+06 3.278675e+06 2.150
19 irregular 1 29 29 52 2 0.222 slower 1 3.278676e+06 3.278678e+06 2.630
19 irregular 1 30 30 53 2.500000e+00 0.104 slower 1 3.278679e+06 3.278682e+06 3.054
19 irregular 1 31 31 67 2 0.325 faster 1 3.278684e+06 3.278686e+06 2.490
19 irregular 1 32 32 66 1.500000e+00 0.286 faster 1 3.278687e+06 3.278689e+06 2.016
19 irregular 1 33 33 54 2.500000e+00 0.129 faster 0 3.278690e+06 3.278694e+06 3.109
19 irregular 1 34 34 67 1.500000e+00 0.127 faster 1 3.278694e+06 3.278696e+06 2.039
19 irregular 1 35 35 54 1.500000e+00 0.316 faster 0 3.278697e+06 3.278700e+06 2.135
19 irregular 1 36 36 53 1.500000e+00 0.172 slower 1 3.278701e+06 3.278703e+06 2.261
19 irregular 1 37 37 67 3 0.359 faster 1 3.278704e+06 3.278708e+06 3.577
19 irregular 1 38 38 54 1 0.568 slower 1 3.278709e+06 3.278711e+06 1.770
19 irregular 1 39 39 66 3 0.520 faster 1 3.278712e+06 3.278716e+06 3.426
19 irregular 1 40 40 55 2 0.141 slower 1 3.278717e+06 3.278720e+06 2.799
19 irregular 1 41 41 55 3 0.510 slower 1 3.278721e+06 3.278725e+06 3.614
19 irregular 1 42 42 64 2 0.561 slower 0 3.278726e+06 3.278729e+06 2.822
19 irregular 1 43 43 55 2 0.318 slower 1 3.278730e+06 3.278733e+06 2.723
19 irregular 1 44 44 55 2.500000e+00 0.310 slower 1 3.278734e+06 3.278737e+06 3.210
19 irregular 1 45 45 64 1.500000e+00 0.455 faster 1 3.278738e+06 3.278740e+06 1.981
19 irregular 1 46 46 56 3 0.407 slower 1 3.278741e+06 3.278745e+06 3.812
19 irregular 1 47 47 57 1 0.213 slower 1 3.278746e+06 3.278748e+06 1.720
19 irregular 1 48 48 57 1 0.256 faster 0 3.278749e+06 3.278751e+06 2.002
19 irregular 1 49 49 64 3 0.241 faster 1 3.278752e+06 3.278755e+06 3.762
19 irregular 1 50 50 63 2 0.557 slower 0 3.278757e+06 3.278760e+06 3.133
19 irregular 1 51 51 64 3 0.564 faster 1 3.278762e+06 3.278765e+06 3.582
19 irregular 1 52 52 64 3 0.558 slower 0 3.278766e+06 3.278770e+06 3.792
19 irregular 1 53 53 55 2 0.106 slower 1 3.278771e+06 3.278774e+06 2.920
19 irregular 1 54 54 56 1.500000e+00 0.325 slower 1 3.278775e+06 3.278778e+06 2.322
19 irregular 1 55 55 64 1 0.250 faster 1 3.278779e+06 3.278780e+06 1.759
19 irregular 1 56 56 57 2.500000e+00 0.180 faster 0 3.278781e+06 3.278785e+06 3.396
19 irregular 1 57 57 64 2.500000e+00 0.247 faster 1 3.278786e+06 3.278789e+06 3.142
19 irregular 1 58 58 56 2.500000e+00 0.216 faster 0 3.278790e+06 3.278793e+06 3.126
19 irregular 1 59 59 55 1 0.470 faster 0 3.278795e+06 3.278796e+06 1.589
19 irregular 1 60 60 54 2.500000e+00 0.449 faster 0 3.278797e+06 3.278801e+06 3.491
19 irregular 1 61 61 53 1 0.165 faster 0 3.278802e+06 3.278804e+06 2.536
19 irregular 1 62 62 68 2.500000e+00 0.295 faster 1 3.278805e+06 3.278808e+06 3.250
19 irregular 1 63 63 53 2 0.107 slower 1 3.278809e+06 3.278812e+06 2.842
19 irregular 1 64 64 53 1.500000e+00 0.357 slower 1 3.278813e+06 3.278816e+06 2.704
19 irregular 1 65 65 54 1 0.371 faster 0 3.278817e+06 3.278819e+06 2.145
19 irregular 1 66 66 67 1.500000e+00 0.139 faster 1 3.278820e+06 3.278822e+06 2.207
19 irregular 1 67 67 67 2.500000e+00 0.549 faster 1 3.278824e+06 3.278827e+06 3.112
19 irregular 1 68 68 54 1 0.508 faster 0 3.278828e+06 3.278830e+06 2.032
19 irregular 1 69 69 67 3 0.236 faster 1 3.278831e+06 3.278836e+06 4.338
19 irregular 1 70 70 67 3 0.508 slower 0 3.278837e+06 3.278841e+06 3.835
19 irregular 1 71 71 68 1 0.104 faster 1 3.278842e+06 3.278844e+06 1.851
19 irregular 1 72 72 67 2 0.535 faster 1 3.278845e+06 3.278848e+06 3.008
19 irregular 1 73 73 53 2 0.235 slower 1 3.278849e+06 3.278852e+06 3.115
19 irregular 1 74 74 54 3 0.298 slower 1 3.278853e+06 3.278857e+06 4.125
19 irregular 1 75 75 54 2 0.260 faster 0 3.278859e+06 3.278862e+06 3.084
19 irregular 1 76 76 67 1 0.551 faster 1 3.278864e+06 3.278866e+06 2.050
19 irregular 1 77 77 54 1.500000e+00 0.410 slower 1 3.278867e+06 3.278869e+06 2.561
19 irregular 1 78 78 66 2 0.110 slower 0 3.278870e+06 3.278873e+06 3.152
19 irregular 1 79 79 53 2.500000e+00 0.364 slower 1 3.278875e+06 3.278878e+06 3.499
19 irregular 1 80 80 66 2 0.541 faster 1 3.278880e+06 3.278883e+06 2.918
19 irregular 1 81 81 66 1 0.500 slower 0 3.278884e+06 3.278886e+06 1.986
19 irregular 1 82 82 53 3 0.533 slower 1 3.278888e+06 3.278892e+06 3.902
19 irregular 1 83 83 66 3 0.426 faster 1 3.278893e+06 3.278897e+06 3.672
19 irregular 1 84 84 54 1.500000e+00 0.200 slower 1 3.278898e+06 3.278901e+06 2.380
19 irregular 1 85 85 65 2 0.141 faster 1 3.278901e+06 3.278904e+06 2.925
19 irregular 1 86 86 65 1.500000e+00 0.298 faster 1 3.278906e+06 3.278908e+06 2.180
19 irregular 1 87 87 56 3 0.208 faster 0 3.278909e+06 3.278913e+06 3.905
19 irregular 1 88 88 65 2.500000e+00 0.298 faster 1 3.278914e+06 3.278918e+06 3.653
19 irregular 1 89 89 55 2 0.592 slower 1 3.278919e+06 3.278922e+06 2.834
19 irregular 1 90 90 56 1.500000e+00 0.331 slower 1 3.278924e+06 3.278926e+06 2.463
19 irregular 1 91 91 64 1.500000e+00 0.234 faster 1 3.278927e+06 3.278929e+06 2.302
19 irregular 1 92 92 63 1.500000e+00 0.472 faster 1 3.278931e+06 3.278934e+06 2.789
19 irregular 1 93 93 57 2.500000e+00 0.330 slower 1 3.278935e+06 3.278938e+06 3.368
19 irregular 1 94 94 62 2.500000e+00 0.576 slower 0 3.278940e+06 3.278943e+06 3.195
19 irregular 1 95 95 63 1.500000e+00 0.440 faster 1 3.278944e+06 3.278947e+06 2.567
19 irregular 1 96 96 63 1 0.127 faster 1 3.278948e+06 3.278950e+06 1.818
19 irregular 1 97 97 58 3 0.151 faster 0 3.278950e+06 3.278954e+06 3.714
19 irregular 1 98 98 57 1.500000e+00 0.105 faster 0 3.278955e+06 3.278958e+06 2.458
19 irregular 1 99 99 64 1 0.303 faster 1 3.278959e+06 3.278961e+06 2.014
19 irregular 1 100 100 64 2.500000e+00 0.575 slower 0 3.278962e+06 3.278965e+06 3.304
19 regular 2 1 101 65 2.500000e+00 0.128 faster 1 3.278996e+06 3.278999e+06 3.312
19 regular 2 2 102 64 2.500000e+00 0.386 faster 1 3.279000e+06 3.279004e+06 3.090
19 regular 2 3 103 56 2.500000e+00 0.352 faster 0 3.279005e+06 3.279008e+06 3.083
19 regular 2 4 104 65 2.500000e+00 0.281 faster 1 3.279009e+06 3.279012e+06 3.216
19 regular 2 5 105 56 2.500000e+00 0.297 faster 0 3.279013e+06 3.279017e+06 3.282
19 regular 2 6 106 55 2.500000e+00 0.498 faster 0 3.279018e+06 3.279021e+06 3.156
19 regular 2 7 107 66 2.500000e+00 0.561 faster 1 3.279023e+06 3.279026e+06 3.072
19 regular 2 8 108 54 2.500000e+00 0.350 slower 1 3.279027e+06 3.279030e+06 3.447
19 regular 2 9 109 55 2.500000e+00 0.293 slower 1 3.279031e+06 3.279035e+06 3.482
19 regular 2 10 110 55 2.500000e+00 0.410 slower 1 3.279036e+06 3.279039e+06 3.330
19 regular 2 11 111 64 2.500000e+00 0.520 faster 1 3.279041e+06 3.279044e+06 3.018
19 regular 2 12 112 64 2.500000e+00 0.156 faster 1 3.279045e+06 3.279049e+06 3.432
19 regular 2 13 113 57 2.500000e+00 0.307 slower 1 3.279050e+06 3.279053e+06 3.426
19 regular 2 14 114 63 2.500000e+00 0.468 faster 1 3.279054e+06 3.279058e+06 3.150
19 regular 2 15 115 62 2.500000e+00 0.233 faster 1 3.279059e+06 3.279063e+06 3.724
19 regular 2 16 116 62 2.500000e+00 0.287 faster 1 3.279064e+06 3.279067e+06 3.490
19 regular 2 17 117 59 2.500000e+00 0.116 slower 1 3.279068e+06 3.279071e+06 3.335
19 regular 2 18 118 61 2.500000e+00 0.279 slower 0 3.279073e+06 3.279076e+06 3.372
19 regular 2 19 119 58 2.500000e+00 0.153 slower 1 3.279077e+06 3.279080e+06 3.225
19 regular 2 20 120 59 2.500000e+00 0.222 faster 0 3.279081e+06 3.279085e+06 3.216
19 regular 2 21 121 62 2.500000e+00 0.205 faster 1 3.279086e+06 3.279089e+06 3.437
19 regular 2 22 122 58 2.500000e+00 0.442 slower 1 3.279091e+06 3.279094e+06 3.201
19 regular 2 23 123 59 2.500000e+00 0.495 slower 1 3.279095e+06 3.279099e+06 3.269
19 regular 2 24 124 61 2.500000e+00 0.162 slower 0 3.279100e+06 3.279103e+06 3.283
19 regular 2 25 125 58 2.500000e+00 0.478 slower 1 3.279104e+06 3.279108e+06 3.264
19 regular 2 26 126 61 2.500000e+00 0.492 faster 1 3.279109e+06 3.279113e+06 3.426
19 regular 2 27 127 59 2.500000e+00 0.344 faster 0 3.279114e+06 3.279118e+06 3.282
19 regular 2 28 128 62 2.500000e+00 0.240 faster 1 3.279119e+06 3.279122e+06 3.140
19 regular 2 29 129 59 2.500000e+00 0.546 slower 1 3.279124e+06 3.279127e+06 3.200
19 regular 2 30 130 61 2.500000e+00 0.532 slower 0 3.279128e+06 3.279131e+06 3.194
19 regular 2 31 131 58 2.500000e+00 0.178 slower 1 3.279132e+06 3.279135e+06 3.211
19 regular 2 32 132 61 2.500000e+00 0.493 faster 1 3.279137e+06 3.279140e+06 3.546
19 regular 2 33 133 59 2.500000e+00 0.539 faster 0 3.279141e+06 3.279145e+06 3.444
19 regular 2 34 134 62 2.500000e+00 0.497 faster 1 3.279146e+06 3.279150e+06 3.720
19 regular 2 35 135 59 2.500000e+00 0.204 slower 1 3.279151e+06 3.279154e+06 3.553
19 regular 2 36 136 61 2.500000e+00 0.156 faster 1 3.279155e+06 3.279159e+06 4.019
19 regular 2 37 137 61 2.500000e+00 0.217 faster 1 3.279161e+06 3.279164e+06 3.439
19 regular 2 38 138 61 2.500000e+00 0.322 slower 0 3.279165e+06 3.279168e+06 3.466
19 regular 2 39 139 62 2.500000e+00 0.596 slower 0 3.279170e+06 3.279173e+06 3.352
19 regular 2 40 140 63 2.500000e+00 0.359 faster 1 3.279174e+06 3.279178e+06 3.261
19 regular 2 41 141 58 2.500000e+00 0.461 slower 1 3.279179e+06 3.279182e+06 3.146
19 regular 2 42 142 62 2.500000e+00 0.500 slower 0 3.279184e+06 3.279187e+06 3.479
19 regular 2 43 143 63 2.500000e+00 0.480 faster 1 3.279189e+06 3.279192e+06 3.269
19 regular 2 44 144 58 2.500000e+00 0.141 faster 0 3.279193e+06 3.279196e+06 3.305
19 regular 2 45 145 63 2.500000e+00 0.313 slower 0 3.279197e+06 3.279201e+06 3.240
19 regular 2 46 146 56 2.500000e+00 0.584 slower 1 3.279202e+06 3.279205e+06 3.026
19 regular 2 47 147 56 2.500000e+00 0.391 slower 1 3.279206e+06 3.279210e+06 3.358
19 regular 2 48 148 57 2.500000e+00 0.387 slower 1 3.279211e+06 3.279214e+06 3.049
19 regular 2 49 149 57 2.500000e+00 0.282 slower 1 3.279215e+06 3.279219e+06 3.194
19 regular 2 50 150 62 2.500000e+00 0.146 slower 0 3.279219e+06 3.279223e+06 3.137
19 regular 2 51 151 63 2.500000e+00 0.569 slower 0 3.279224e+06 3.279227e+06 3.178
19 regular 2 52 152 56 2.500000e+00 0.262 slower 1 3.279229e+06 3.279232e+06 3.112
19 regular 2 53 153 56 2.500000e+00 0.527 slower 1 3.279233e+06 3.279236e+06 3.164
19 regular 2 54 154 57 2.500000e+00 0.578 slower 1 3.279238e+06 3.279241e+06 2.991
19 regular 2 55 155 57 2.500000e+00 0.244 slower 1 3.279242e+06 3.279245e+06 3.243
19 regular 2 56 156 62 2.500000e+00 0.545 faster 1 3.279247e+06 3.279250e+06 3.126
19 regular 2 57 157 62 2.500000e+00 0.496 faster 1 3.279251e+06 3.279255e+06 3.135
19 regular 2 58 158 61 2.500000e+00 0.168 faster 1 3.279256e+06 3.279259e+06 3.589
19 regular 2 59 159 59 2.500000e+00 0.144 faster 0 3.279261e+06 3.279264e+06 3.346
19 regular 2 60 160 58 2.500000e+00 0.507 slower 1 3.279266e+06 3.279269e+06 3.100
19 regular 2 61 161 61 2.500000e+00 0.193 slower 0 3.279270e+06 3.279274e+06 3.389
19 regular 2 62 162 62 2.500000e+00 0.177 faster 1 3.279275e+06 3.279279e+06 3.769
19 regular 2 63 163 62 2.500000e+00 0.399 slower 0 3.279280e+06 3.279284e+06 3.783
19 regular 2 64 164 63 2.500000e+00 0.576 slower 0 3.279286e+06 3.279289e+06 3.404
19 regular 2 65 165 64 2.500000e+00 0.239 slower 0 3.279290e+06 3.279294e+06 3.222
19 regular 2 66 166 65 2.500000e+00 0.291 faster 1 3.279295e+06 3.279298e+06 3.070
19 regular 2 67 167 64 2.500000e+00 0.385 slower 0 3.279299e+06 3.279303e+06 3.170
19 regular 2 68 168 55 2.500000e+00 0.511 slower 1 3.279304e+06 3.279307e+06 3.144
19 regular 2 69 169 55 2.500000e+00 0.541 slower 1 3.279308e+06 3.279312e+06 3.147
19 regular 2 70 170 64 2.500000e+00 0.252 slower 0 3.279313e+06 3.279316e+06 3.532
19 regular 2 71 171 65 2.500000e+00 0.276 slower 0 3.279318e+06 3.279321e+06 3.204
19 regular 2 72 172 66 2.500000e+00 0.190 faster 1 3.279322e+06 3.279325e+06 3.338
19 regular 2 73 173 54 2.500000e+00 0.501 slower 1 3.279327e+06 3.279330e+06 3.075
19 regular 2 74 174 55 2.500000e+00 0.210 slower 1 3.279331e+06 3.279334e+06 3.361
19 regular 2 75 175 55 2.500000e+00 0.345 slower 1 3.279335e+06 3.279339e+06 3.484
19 regular 2 76 176 64 2.500000e+00 0.286 faster 1 3.279339e+06 3.279343e+06 3.126
19 regular 2 77 177 64 2.500000e+00 0.320 faster 1 3.279344e+06 3.279347e+06 3.237
19 regular 2 78 178 57 2.500000e+00 0.278 slower 1 3.279348e+06 3.279352e+06 3.328
19 regular 2 79 179 57 2.500000e+00 0.212 slower 1 3.279353e+06 3.279356e+06 3.068
19 regular 2 80 180 58 2.500000e+00 0.505 slower 1 3.279358e+06 3.279361e+06 3.217
19 regular 2 81 181 62 2.500000e+00 0.196 faster 1 3.279363e+06 3.279366e+06 3.422
19 regular 2 82 182 61 2.500000e+00 0.389 faster 1 3.279368e+06 3.279371e+06 3.216
19 regular 2 83 183 59 2.500000e+00 0.427 slower 1 3.279372e+06 3.279375e+06 3.159
19 regular 2 84 184 59 2.500000e+00 0.448 slower 1 3.279377e+06 3.279380e+06 3.108
19 regular 2 85 185 61 2.500000e+00 0.569 faster 1 3.279381e+06 3.279385e+06 3.302
19 regular 2 86 186 59 2.500000e+00 0.118 slower 1 3.279385e+06 3.279389e+06 3.631
19 regular 2 87 187 59 2.500000e+00 0.238 slower 1 3.279390e+06 3.279394e+06 3.254
19 regular 2 88 188 59 2.500000e+00 0.232 slower 1 3.279394e+06 3.279398e+06 3.453
19 regular 2 89 189 59 2.500000e+00 0.462 slower 1 3.279400e+06 3.279403e+06 3.460
19 regular 2 90 190 61 2.500000e+00 0.500 faster 1 3.279404e+06 3.279407e+06 3.124
19 regular 2 91 191 59 2.500000e+00 0.475 slower 1 3.279409e+06 3.279412e+06 3.138
19 regular 2 92 192 59 2.500000e+00 0.250 faster 0 3.279413e+06 3.279416e+06 3.425
19 regular 2 93 193 58 2.500000e+00 0.344 slower 1 3.279417e+06 3.279421e+06 3.383
19 regular 2 94 194 62 2.500000e+00 0.459 faster 1 3.279422e+06 3.279425e+06 3.240
19 regular 2 95 195 61 2.500000e+00 0.357 slower 0 3.279426e+06 3.279429e+06 3.286
19 regular 2 96 196 58 2.500000e+00 0.280 slower 1 3.279430e+06 3.279433e+06 3.285
19 regular 2 97 197 58 2.500000e+00 0.514 slower 1 3.279435e+06 3.279438e+06 3.449
19 regular 2 98 198 59 2.500000e+00 0.250 faster 0 3.279439e+06 3.279442e+06 3.355
19 regular 2 99 199 62 2.500000e+00 0.571 faster 1 3.279444e+06 3.279448e+06 3.442
19 regular 2 100 200 62 2.500000e+00 0.169 faster 1 3.279449e+06 3.279453e+06 3.699
19 irregular 3 1 201 61 3 0.276 faster 1 3.279519e+06 3.279522e+06 3.779
19 irregular 3 2 202 59 2.500000e+00 0.250 faster 0 3.279524e+06 3.279527e+06 3.302
19 irregular 3 3 203 58 2 0.225 faster 0 3.279528e+06 3.279531e+06 2.593
19 irregular 3 4 204 57 1.500000e+00 0.345 slower 1 3.279532e+06 3.279535e+06 2.436
19 irregular 3 5 205 58 2 0.387 faster 0 3.279536e+06 3.279539e+06 2.637
19 irregular 3 6 206 63 1.500000e+00 0.413 faster 1 3.279540e+06 3.279543e+06 2.317
19 irregular 3 7 207 57 1 0.400 faster 0 3.279544e+06 3.279546e+06 1.875
19 irregular 3 8 208 64 2.500000e+00 0.507 slower 0 3.279547e+06 3.279551e+06 3.567
19 irregular 3 9 209 55 2.500000e+00 0.578 faster 0 3.279553e+06 3.279556e+06 3.623
19 irregular 3 10 210 54 3 0.538 slower 1 3.279558e+06 3.279561e+06 3.599
19 irregular 3 11 211 55 3 0.465 slower 1 3.279563e+06 3.279566e+06 3.521
19 irregular 3 12 212 55 1.500000e+00 0.528 faster 0 3.279568e+06 3.279571e+06 3.028
19 irregular 3 13 213 54 2 0.180 faster 0 3.279572e+06 3.279575e+06 2.681
19 irregular 3 14 214 53 1.500000e+00 0.145 faster 0 3.279576e+06 3.279578e+06 2.164
19 irregular 3 15 215 68 2.500000e+00 0.389 faster 1 3.279579e+06 3.279582e+06 3.291
19 irregular 3 16 216 53 1 0.287 faster 0 3.279583e+06 3.279585e+06 1.794
19 irregular 3 17 217 68 3 0.330 faster 1 3.279586e+06 3.279590e+06 3.558
19 irregular 3 18 218 68 2 0.366 faster 1 3.279591e+06 3.279594e+06 2.668
19 irregular 3 19 219 67 1 0.436 faster 1 3.279595e+06 3.279597e+06 1.707
19 irregular 3 20 220 67 2.500000e+00 0.117 faster 1 3.279598e+06 3.279601e+06 3.191
19 irregular 3 21 221 54 2 0.589 slower 1 3.279602e+06 3.279605e+06 2.819
19 irregular 3 22 222 66 2.500000e+00 0.217 faster 1 3.279606e+06 3.279609e+06 3.301
19 irregular 3 23 223 55 3 0.233 faster 0 3.279610e+06 3.279614e+06 3.950
19 irregular 3 24 224 66 1.500000e+00 0.306 slower 0 3.279615e+06 3.279618e+06 2.698
19 irregular 3 25 225 53 2 0.525 slower 1 3.279619e+06 3.279622e+06 2.971
19 irregular 3 26 226 67 1.500000e+00 0.565 faster 1 3.279623e+06 3.279626e+06 2.325
19 irregular 3 27 227 66 1.500000e+00 0.288 faster 1 3.279627e+06 3.279629e+06 2.349
19 irregular 3 28 228 54 1.500000e+00 0.183 faster 0 3.279630e+06 3.279633e+06 2.957
19 irregular 3 29 229 53 2 0.474 slower 1 3.279634e+06 3.279637e+06 2.576
19 irregular 3 30 230 54 1.500000e+00 0.280 slower 1 3.279638e+06 3.279640e+06 2.151
19 irregular 3 31 231 66 1 0.496 faster 1 3.279642e+06 3.279643e+06 1.617
19 irregular 3 32 232 65 1 0.525 faster 1 3.279644e+06 3.279646e+06 1.662
19 irregular 3 33 233 55 2 0.562 slower 1 3.279647e+06 3.279650e+06 2.393
19 irregular 3 34 234 64 2 0.201 faster 1 3.279651e+06 3.279654e+06 2.597
19 irregular 3 35 235 64 1 0.346 faster 1 3.279655e+06 3.279656e+06 1.595
19 irregular 3 36 236 63 2 0.332 faster 1 3.279657e+06 3.279660e+06 2.486
19 irregular 3 37 237 63 3 0.577 faster 1 3.279662e+06 3.279665e+06 3.839
19 irregular 3 38 238 62 2 0.404 faster 1 3.279666e+06 3.279669e+06 2.480
19 irregular 3 39 239 58 2.500000e+00 0.504 faster 0 3.279670e+06 3.279673e+06 3.056
19 irregular 3 40 240 63 1 0.320 faster 1 3.279675e+06 3.279676e+06 1.569
19 irregular 3 41 241 58 2 0.160 slower 1 3.279677e+06 3.279680e+06 2.581
19 irregular 3 42 242 58 2.500000e+00 0.102 faster 0 3.279681e+06 3.279684e+06 3.079
19 irregular 3 43 243 57 1 0.365 faster 0 3.279685e+06 3.279687e+06 1.767
19 irregular 3 44 244 64 3 0.111 faster 1 3.279688e+06 3.279692e+06 3.682
19 irregular 3 45 245 63 1 0.315 slower 0 3.279693e+06 3.279695e+06 1.890
19 irregular 3 46 246 64 2.500000e+00 0.266 faster 1 3.279696e+06 3.279699e+06 3.140
19 irregular 3 47 247 56 3 0.550 faster 0 3.279701e+06 3.279704e+06 3.713
19 irregular 3 48 248 55 2.500000e+00 0.233 slower 1 3.279705e+06 3.279709e+06 3.329
19 irregular 3 49 249 64 2.500000e+00 0.588 faster 1 3.279710e+06 3.279714e+06 3.192
19 irregular 3 50 250 56 2.500000e+00 0.106 slower 1 3.279714e+06 3.279718e+06 3.588
19 irregular 3 51 251 57 1.500000e+00 0.559 slower 1 3.279720e+06 3.279722e+06 2.277
19 irregular 3 52 252 57 3 0.555 slower 1 3.279723e+06 3.279727e+06 3.759
19 irregular 3 53 253 62 3 0.472 faster 1 3.279729e+06 3.279732e+06 3.546
19 irregular 3 54 254 58 3 0.233 slower 1 3.279733e+06 3.279737e+06 3.823
19 irregular 3 55 255 61 1.500000e+00 0.306 slower 0 3.279739e+06 3.279741e+06 2.229
19 irregular 3 56 256 58 1.500000e+00 0.275 faster 0 3.279742e+06 3.279744e+06 2.129
19 irregular 3 57 257 57 1 0.125 slower 1 3.279745e+06 3.279747e+06 1.842
19 irregular 3 58 258 57 3 0.372 slower 1 3.279748e+06 3.279752e+06 3.885
19 irregular 3 59 259 62 3 0.355 faster 1 3.279753e+06 3.279757e+06 3.522
19 irregular 3 60 260 58 2.500000e+00 0.416 faster 0 3.279758e+06 3.279761e+06 3.035
19 irregular 3 61 261 57 3 0.327 faster 0 3.279762e+06 3.279766e+06 3.534
19 irregular 3 62 262 56 2.500000e+00 0.476 faster 0 3.279767e+06 3.279771e+06 3.321
19 irregular 3 63 263 65 2 0.205 faster 1 3.279772e+06 3.279774e+06 2.766
19 irregular 3 64 264 64 1.500000e+00 0.588 faster 1 3.279776e+06 3.279779e+06 2.382
19 irregular 3 65 265 64 1.500000e+00 0.377 faster 1 3.279780e+06 3.279782e+06 2.369
19 irregular 3 66 266 63 1.500000e+00 0.320 faster 1 3.279783e+06 3.279785e+06 2.157
19 irregular 3 67 267 63 2.500000e+00 0.583 faster 1 3.279787e+06 3.279790e+06 3.276
19 irregular 3 68 268 62 1 0.297 faster 1 3.279791e+06 3.279793e+06 1.740
19 irregular 3 69 269 62 2.500000e+00 0.225 faster 1 3.279794e+06 3.279797e+06 3.140
19 irregular 3 70 270 59 1 0.367 slower 1 3.279798e+06 3.279800e+06 1.947
19 irregular 3 71 271 61 2 0.142 faster 1 3.279801e+06 3.279804e+06 2.844
19 irregular 3 72 272 61 1.500000e+00 0.216 faster 1 3.279805e+06 3.279807e+06 2.501
19 irregular 3 73 273 61 1 0.215 faster 1 3.279808e+06 3.279810e+06 1.872
19 irregular 3 74 274 59 3 0.342 faster 0 3.279811e+06 3.279816e+06 4.313
19 irregular 3 75 275 58 2 0.573 faster 0 3.279817e+06 3.279820e+06 2.596
19 irregular 3 76 276 57 2 0.114 slower 1 3.279821e+06 3.279823e+06 2.558
19 irregular 3 77 277 57 1 0.167 slower 1 3.279824e+06 3.279826e+06 1.895
19 irregular 3 78 278 58 1.500000e+00 0.486 slower 1 3.279828e+06 3.279830e+06 2.307
19 irregular 3 79 279 62 3 0.424 faster 1 3.279831e+06 3.279834e+06 3.423
19 irregular 3 80 280 59 2.500000e+00 0.183 faster 0 3.279835e+06 3.279839e+06 3.610
19 irregular 3 81 281 58 1.500000e+00 0.290 slower 1 3.279840e+06 3.279842e+06 2.097
19 irregular 3 82 282 62 2 0.498 slower 0 3.279843e+06 3.279846e+06 2.649
19 irregular 3 83 283 57 3 0.299 faster 0 3.279847e+06 3.279851e+06 3.649
19 irregular 3 84 284 64 2.500000e+00 0.278 faster 1 3.279852e+06 3.279855e+06 3.046
19 irregular 3 85 285 63 1 0.347 faster 1 3.279856e+06 3.279858e+06 1.636
19 irregular 3 86 286 57 1 0.414 slower 1 3.279859e+06 3.279861e+06 1.717
19 irregular 3 87 287 62 3 0.492 slower 0 3.279863e+06 3.279866e+06 3.568
19 irregular 3 88 288 63 1.500000e+00 0.508 faster 1 3.279868e+06 3.279870e+06 2.104
19 irregular 3 89 289 63 1 0.462 faster 1 3.279871e+06 3.279873e+06 1.569
19 irregular 3 90 290 58 1 0.490 slower 1 3.279874e+06 3.279876e+06 1.681
19 irregular 3 91 291 62 2 0.173 slower 0 3.279877e+06 3.279880e+06 2.577
19 irregular 3 92 292 63 2 0.385 slower 0 3.279881e+06 3.279884e+06 2.674
19 irregular 3 93 293 64 2.500000e+00 0.277 slower 0 3.279885e+06 3.279888e+06 3.160
19 irregular 3 94 294 55 1 0.328 slower 1 3.279889e+06 3.279891e+06 1.740
19 irregular 3 95 295 64 3 0.266 slower 0 3.279892e+06 3.279896e+06 3.636
19 irregular 3 96 296 55 2.500000e+00 0.288 slower 1 3.279897e+06 3.279900e+06 3.151
19 irregular 3 97 297 55 1 0.171 faster 0 3.279901e+06 3.279903e+06 1.722
19 irregular 3 98 298 66 2 0.475 slower 0 3.279904e+06 3.279907e+06 3.320
19 irregular 3 99 299 53 1.500000e+00 0.413 slower 1 3.279909e+06 3.279911e+06 2.211
19 irregular 3 100 300 66 3 0.586 faster 1 3.279913e+06 3.279916e+06 3.511
19 regular 4 1 301 66 3 0.550 faster 1 3.279946e+06 3.279950e+06 3.593
19 regular 4 2 302 55 3 0.473 faster 0 3.279951e+06 3.279955e+06 3.828
19 regular 4 3 303 54 3 0.412 faster 0 3.279956e+06 3.279960e+06 4.130
19 regular 4 4 304 67 3 0.182 faster 1 3.279961e+06 3.279966e+06 4.590
19 regular 4 5 305 53 3 0.131 slower 1 3.279967e+06 3.279971e+06 4.040
19 regular 4 6 306 66 3 0.394 faster 1 3.279972e+06 3.279976e+06 3.724
19 regular 4 7 307 54 3 0.584 faster 0 3.279977e+06 3.279981e+06 3.822
19 regular 4 8 308 67 3 0.441 slower 0 3.279982e+06 3.279986e+06 3.982
19 regular 4 9 309 68 3 0.541 faster 1 3.279988e+06 3.279992e+06 3.715
19 regular 4 10 310 53 3 0.101 faster 0 3.279994e+06 3.279998e+06 4.131
19 regular 4 11 311 52 3 0.274 slower 1 3.279999e+06 3.280003e+06 3.973
19 regular 4 12 312 52 3 0.238 faster 0 3.280004e+06 3.280008e+06 3.712
19 regular 4 13 313 51 3 0.312 faster 0 3.280010e+06 3.280014e+06 3.749
19 regular 4 14 314 70 3 0.445 faster 1 3.280015e+06 3.280019e+06 3.680
19 regular 4 15 315 51 3 0.392 slower 1 3.280021e+06 3.280024e+06 3.777
19 regular 4 16 316 69 3 0.556 faster 1 3.280026e+06 3.280029e+06 3.515
19 regular 4 17 317 52 3 0.347 slower 1 3.280030e+06 3.280034e+06 3.582
19 regular 4 18 318 52 3 0.387 slower 1 3.280035e+06 3.280039e+06 3.661
19 regular 4 19 319 53 3 0.577 slower 1 3.280040e+06 3.280044e+06 3.940
19 regular 4 20 320 53 3 0.154 faster 0 3.280045e+06 3.280048e+06 3.438
19 regular 4 21 321 68 3 0.341 faster 1 3.280049e+06 3.280053e+06 3.645
19 regular 4 22 322 53 3 0.314 faster 0 3.280055e+06 3.280058e+06 3.501
19 regular 4 23 323 68 3 0.216 faster 1 3.280060e+06 3.280063e+06 3.510
19 regular 4 24 324 68 3 0.339 faster 1 3.280065e+06 3.280068e+06 3.733
19 regular 4 25 325 53 3 0.435 faster 0 3.280070e+06 3.280074e+06 3.632
19 regular 4 26 326 52 3 0.430 faster 0 3.280075e+06 3.280078e+06 3.663
19 regular 4 27 327 69 3 0.418 faster 1 3.280080e+06 3.280083e+06 3.629
19 regular 4 28 328 51 3 0.253 faster 0 3.280084e+06 3.280088e+06 3.576
19 regular 4 29 329 50 3 0.441 slower 1 3.280090e+06 3.280094e+06 4.310
19 regular 4 30 330 69 3 0.110 faster 1 3.280095e+06 3.280098e+06 3.503
19 regular 4 31 331 69 3 0.434 faster 1 3.280100e+06 3.280104e+06 4.438
19 regular 4 32 332 52 3 0.303 slower 1 3.280105e+06 3.280109e+06 3.709
19 regular 4 33 333 52 3 0.510 slower 1 3.280110e+06 3.280114e+06 3.575
19 regular 4 34 334 67 3 0.149 faster 1 3.280115e+06 3.280118e+06 3.633
19 regular 4 35 335 53 3 0.583 faster 0 3.280120e+06 3.280123e+06 3.552
19 regular 4 36 336 68 3 0.346 faster 1 3.280124e+06 3.280128e+06 3.503
19 regular 4 37 337 67 3 0.384 faster 1 3.280129e+06 3.280132e+06 3.628
19 regular 4 38 338 67 3 0.374 faster 1 3.280134e+06 3.280138e+06 3.749
19 regular 4 39 339 54 3 0.348 faster 0 3.280139e+06 3.280142e+06 3.662
19 regular 4 40 340 67 3 0.437 slower 0 3.280143e+06 3.280147e+06 3.952
19 regular 4 41 341 68 3 0.452 slower 0 3.280149e+06 3.280153e+06 4.317
19 regular 4 42 342 69 3 0.274 faster 1 3.280154e+06 3.280157e+06 3.473
19 regular 4 43 343 69 3 0.135 faster 1 3.280159e+06 3.280162e+06 3.532
19 regular 4 44 344 68 3 0.522 faster 1 3.280164e+06 3.280167e+06 3.532
19 regular 4 45 345 68 3 0.200 faster 1 3.280169e+06 3.280172e+06 3.557
19 regular 4 46 346 53 3 0.502 faster 0 3.280173e+06 3.280177e+06 3.602
19 regular 4 47 347 52 3 0.338 slower 1 3.280179e+06 3.280182e+06 3.607
19 regular 4 48 348 68 3 0.421 faster 1 3.280184e+06 3.280187e+06 3.525
19 regular 4 49 349 53 3 0.180 slower 1 3.280189e+06 3.280193e+06 3.700
19 regular 4 50 350 53 3 0.234 slower 1 3.280194e+06 3.280198e+06 3.838
19 regular 4 51 351 54 3 0.109 slower 1 3.280199e+06 3.280202e+06 3.672
19 regular 4 52 352 54 3 0.470 slower 1 3.280204e+06 3.280208e+06 3.619
19 regular 4 53 353 65 3 0.424 faster 1 3.280209e+06 3.280212e+06 3.567
19 regular 4 54 354 65 3 0.140 faster 1 3.280213e+06 3.280217e+06 3.732
19 regular 4 55 355 56 3 0.251 faster 0 3.280218e+06 3.280222e+06 3.972
19 regular 4 56 356 55 3 0.280 slower 1 3.280223e+06 3.280227e+06 3.647
19 regular 4 57 357 55 3 0.326 slower 1 3.280228e+06 3.280232e+06 3.727
19 regular 4 58 358 56 3 0.521 faster 0 3.280234e+06 3.280237e+06 3.674
19 regular 4 59 359 65 3 0.121 faster 1 3.280238e+06 3.280242e+06 3.748
19 regular 4 60 360 55 3 0.278 faster 0 3.280243e+06 3.280247e+06 3.837
19 regular 4 61 361 66 3 0.102 faster 1 3.280247e+06 3.280251e+06 3.903
19 regular 4 62 362 65 3 0.357 faster 1 3.280253e+06 3.280256e+06 3.810
19 regular 4 63 363 65 3 0.269 faster 1 3.280257e+06 3.280262e+06 4.123
19 regular 4 64 364 56 3 0.312 faster 0 3.280262e+06 3.280266e+06 3.843
19 regular 4 65 365 55 3 0.419 faster 0 3.280267e+06 3.280272e+06 4.246
19 regular 4 66 366 54 3 0.373 faster 0 3.280273e+06 3.280276e+06 3.586
19 regular 4 67 367 53 3 0.130 faster 0 3.280278e+06 3.280281e+06 3.820
19 regular 4 68 368 52 3 0.500 slower 1 3.280283e+06 3.280287e+06 3.900
19 regular 4 69 369 52 3 0.329 slower 1 3.280289e+06 3.280292e+06 3.536
19 regular 4 70 370 67 3 0.397 faster 1 3.280294e+06 3.280297e+06 3.703
19 regular 4 71 371 53 3 0.142 faster 0 3.280299e+06 3.280302e+06 3.569
19 regular 4 72 372 68 3 0.290 faster 1 3.280304e+06 3.280308e+06 3.830
19 regular 4 73 373 67 3 0.110 slower 0 3.280309e+06 3.280313e+06 3.623
19 regular 4 74 374 68 3 0.368 faster 1 3.280314e+06 3.280318e+06 3.763
19 regular 4 75 375 52 3 0.416 slower 1 3.280319e+06 3.280323e+06 3.631
19 regular 4 76 376 67 3 0.279 slower 0 3.280325e+06 3.280328e+06 3.549
19 regular 4 77 377 68 3 0.599 slower 0 3.280330e+06 3.280334e+06 3.728
19 regular 4 78 378 69 3 0.232 faster 1 3.280334e+06 3.280339e+06 4.232
19 regular 4 79 379 51 3 0.102 faster 0 3.280340e+06 3.280344e+06 3.915
19 regular 4 80 380 70 3 0.165 slower 0 3.280345e+06 3.280349e+06 3.982
19 regular 4 81 381 49 3 0.205 slower 1 3.280349e+06 3.280353e+06 3.675
19 regular 4 82 382 50 3 0.145 slower 1 3.280355e+06 3.280358e+06 3.644
19 regular 4 83 383 70 3 0.280 slower 0 3.280360e+06 3.280364e+06 3.850
19 regular 4 84 384 49 3 0.299 faster 0 3.280365e+06 3.280369e+06 3.658
19 regular 4 85 385 48 3 0.374 slower 1 3.280370e+06 3.280374e+06 3.654
19 regular 4 86 386 71 3 0.265 slower 0 3.280376e+06 3.280379e+06 3.963
19 regular 4 87 387 72 3 0.103 slower 0 3.280380e+06 3.280384e+06 3.960
19 regular 4 88 388 73 3 0.464 faster 1 3.280385e+06 3.280389e+06 3.668
19 regular 4 89 389 47 3 0.145 slower 1 3.280390e+06 3.280394e+06 4.011
19 regular 4 90 390 72 3 0.554 faster 1 3.280396e+06 3.280400e+06 3.791
19 regular 4 91 391 72 3 0.351 faster 1 3.280401e+06 3.280405e+06 3.684
19 regular 4 92 392 71 3 0.423 slower 0 3.280406e+06 3.280410e+06 4.090
19 regular 4 93 393 72 3 0.549 faster 1 3.280411e+06 3.280415e+06 3.677
19 regular 4 94 394 72 3 0.599 slower 0 3.280416e+06 3.280420e+06 3.731
19 regular 4 95 395 73 3 0.149 faster 1 3.280421e+06 3.280425e+06 4.196
19 regular 4 96 396 48 3 0.559 slower 1 3.280427e+06 3.280430e+06 3.457
19 regular 4 97 397 72 3 0.129 faster 1 3.280432e+06 3.280435e+06 3.484
19 regular 4 98 398 71 3 0.456 faster 1 3.280436e+06 3.280441e+06 4.321
19 regular 4 99 399 49 3 0.369 slower 1 3.280442e+06 3.280446e+06 3.645
19 regular 4 100 400 50 3 0.188 slower 1 3.280447e+06 3.280451e+06 3.879
19 irregular 5 1 401 70 2.500000e+00 0.110 faster 1 3.280516e+06 3.280519e+06 3.023
19 irregular 5 2 402 69 1 0.595 faster 1 3.280520e+06 3.280522e+06 1.690
19 irregular 5 3 403 51 3 0.243 slower 1 3.280523e+06 3.280527e+06 3.669
19 irregular 5 4 404 68 3 0.246 faster 1 3.280528e+06 3.280531e+06 3.401
19 irregular 5 5 405 52 2 0.384 slower 1 3.280532e+06 3.280535e+06 2.786
19 irregular 5 6 406 53 2 0.540 slower 1 3.280536e+06 3.280539e+06 2.609
19 irregular 5 7 407 67 2.500000e+00 0.344 faster 1 3.280540e+06 3.280543e+06 2.998
19 irregular 5 8 408 54 2 0.233 slower 1 3.280544e+06 3.280547e+06 2.985
19 irregular 5 9 409 66 3 0.481 faster 1 3.280549e+06 3.280553e+06 4.148
19 irregular 5 10 410 55 2 0.244 slower 1 3.280554e+06 3.280557e+06 2.818
19 irregular 5 11 411 55 1 0.154 slower 1 3.280558e+06 3.280560e+06 1.780
19 irregular 5 12 412 56 1.500000e+00 0.255 slower 1 3.280561e+06 3.280563e+06 2.109
19 irregular 5 13 413 64 3 0.488 faster 1 3.280564e+06 3.280567e+06 3.551
19 irregular 5 14 414 57 1 0.298 slower 1 3.280568e+06 3.280570e+06 2.020
19 irregular 5 15 415 63 2.500000e+00 0.476 faster 1 3.280572e+06 3.280575e+06 3.181
19 irregular 5 16 416 62 2 0.186 slower 0 3.280576e+06 3.280578e+06 2.831
19 irregular 5 17 417 57 1 0.370 faster 0 3.280579e+06 3.280581e+06 1.832
19 irregular 5 18 418 56 2.500000e+00 0.304 faster 0 3.280582e+06 3.280586e+06 3.276
19 irregular 5 19 419 65 1 0.344 faster 1 3.280587e+06 3.280589e+06 2.021
19 irregular 5 20 420 65 3 0.544 slower 0 3.280590e+06 3.280594e+06 4.049
19 irregular 5 21 421 54 1.500000e+00 0.110 slower 1 3.280595e+06 3.280597e+06 2.311
19 irregular 5 22 422 55 3 0.555 faster 0 3.280599e+06 3.280602e+06 3.720
19 irregular 5 23 423 54 2 0.175 faster 0 3.280603e+06 3.280606e+06 2.651
19 irregular 5 24 424 53 1.500000e+00 0.220 faster 0 3.280607e+06 3.280609e+06 2.146
19 irregular 5 25 425 52 3 0.409 slower 1 3.280610e+06 3.280614e+06 3.660
19 irregular 5 26 426 52 3 0.597 faster 0 3.280615e+06 3.280619e+06 3.694
19 irregular 5 27 427 51 2.500000e+00 0.430 faster 0 3.280620e+06 3.280623e+06 3.178
19 irregular 5 28 428 70 2.500000e+00 0.485 faster 1 3.280625e+06 3.280628e+06 3.165
19 irregular 5 29 429 69 1 0.294 slower 0 3.280629e+06 3.280631e+06 1.866
19 irregular 5 30 430 50 1.500000e+00 0.188 faster 0 3.280632e+06 3.280634e+06 2.239
19 irregular 5 31 431 49 1 0.308 faster 0 3.280635e+06 3.280637e+06 1.760
19 irregular 5 32 432 72 1.500000e+00 0.549 faster 1 3.280638e+06 3.280640e+06 2.307
19 irregular 5 33 433 72 1 0.287 faster 1 3.280641e+06 3.280643e+06 1.754
19 irregular 5 34 434 71 1 0.574 faster 1 3.280644e+06 3.280646e+06 2.017
19 irregular 5 35 435 49 1.500000e+00 0.431 faster 0 3.280647e+06 3.280650e+06 2.341
19 irregular 5 36 436 72 2 0.123 faster 1 3.280651e+06 3.280654e+06 2.867
19 irregular 5 37 437 71 1.500000e+00 0.599 slower 0 3.280655e+06 3.280658e+06 2.459
19 irregular 5 38 438 48 1.500000e+00 0.176 faster 0 3.280658e+06 3.280661e+06 2.273
19 irregular 5 39 439 47 1 0.267 faster 0 3.280662e+06 3.280664e+06 1.903
19 irregular 5 40 440 46 2 0.366 slower 1 3.280665e+06 3.280667e+06 2.631
19 irregular 5 41 441 74 2 0.544 faster 1 3.280669e+06 3.280672e+06 2.941
19 irregular 5 42 442 47 3 0.409 slower 1 3.280673e+06 3.280676e+06 3.487
19 irregular 5 43 443 47 1.500000e+00 0.191 slower 1 3.280677e+06 3.280679e+06 2.197
19 irregular 5 44 444 48 2.500000e+00 0.264 faster 0 3.280681e+06 3.280684e+06 2.979
19 irregular 5 45 445 47 3 0.124 slower 1 3.280685e+06 3.280688e+06 3.791
19 irregular 5 46 446 73 2 0.520 faster 1 3.280690e+06 3.280692e+06 2.424
19 irregular 5 47 447 48 1 0.433 faster 0 3.280694e+06 3.280696e+06 2.336
19 irregular 5 48 448 47 1 0.439 faster 0 3.280697e+06 3.280699e+06 1.587
19 irregular 5 49 449 46 3 0.213 slower 1 3.280700e+06 3.280704e+06 3.627
19 irregular 5 50 450 46 1.500000e+00 0.114 slower 1 3.280704e+06 3.280707e+06 2.066
19 irregular 5 51 451 47 1 0.125 slower 1 3.280708e+06 3.280709e+06 1.563
19 irregular 5 52 452 47 2.500000e+00 0.126 slower 1 3.280710e+06 3.280713e+06 2.963
19 irregular 5 53 453 48 2.500000e+00 0.121 faster 0 3.280714e+06 3.280717e+06 3.437
19 irregular 5 54 454 73 2.500000e+00 0.310 faster 1 3.280719e+06 3.280722e+06 3.056
19 irregular 5 55 455 73 1.500000e+00 0.563 faster 1 3.280723e+06 3.280725e+06 2.209
19 irregular 5 56 456 72 1.500000e+00 0.385 faster 1 3.280726e+06 3.280728e+06 2.058
19 irregular 5 57 457 72 1 0.332 faster 1 3.280730e+06 3.280731e+06 1.731
19 irregular 5 58 458 49 3 0.184 faster 0 3.280732e+06 3.280736e+06 3.802
19 irregular 5 59 459 72 2.500000e+00 0.222 faster 1 3.280737e+06 3.280740e+06 3.527
19 irregular 5 60 460 48 2.500000e+00 0.487 slower 1 3.280742e+06 3.280745e+06 3.066
19 irregular 5 61 461 71 2 0.599 faster 1 3.280747e+06 3.280750e+06 2.557
19 irregular 5 62 462 49 2 0.262 slower 1 3.280751e+06 3.280753e+06 2.664
19 irregular 5 63 463 70 2 0.406 slower 0 3.280754e+06 3.280757e+06 2.602
19 irregular 5 64 464 71 3 0.566 faster 1 3.280759e+06 3.280762e+06 3.926
19 irregular 5 65 465 49 2.500000e+00 0.499 faster 0 3.280764e+06 3.280767e+06 3.162
19 irregular 5 66 466 72 2 0.442 faster 1 3.280768e+06 3.280771e+06 2.790
19 irregular 5 67 467 49 2 0.543 faster 0 3.280773e+06 3.280776e+06 2.745
19 irregular 5 68 468 48 1 0.415 faster 0 3.280777e+06 3.280778e+06 1.718
19 irregular 5 69 469 73 1.500000e+00 0.599 faster 1 3.280780e+06 3.280782e+06 2.057
19 irregular 5 70 470 73 1.500000e+00 0.248 faster 1 3.280783e+06 3.280785e+06 2.236
19 irregular 5 71 471 72 1.500000e+00 0.490 faster 1 3.280787e+06 3.280789e+06 2.026
19 irregular 5 72 472 72 2 0.231 slower 0 3.280790e+06 3.280793e+06 2.647
19 irregular 5 73 473 73 3 0.154 faster 1 3.280793e+06 3.280797e+06 3.724
19 irregular 5 74 474 72 2.500000e+00 0.291 faster 1 3.280798e+06 3.280801e+06 3.051
19 irregular 5 75 475 72 3 0.513 faster 1 3.280803e+06 3.280806e+06 3.516
19 irregular 5 76 476 71 1.500000e+00 0.197 faster 1 3.280807e+06 3.280809e+06 2.290
19 irregular 5 77 477 71 1 0.502 faster 1 3.280811e+06 3.280812e+06 1.617
19 irregular 5 78 478 70 2.500000e+00 0.143 faster 1 3.280813e+06 3.280816e+06 3.110
19 irregular 5 79 479 70 1 0.591 faster 1 3.280818e+06 3.280819e+06 1.521
19 irregular 5 80 480 51 2 0.315 slower 1 3.280820e+06 3.280819e+06 -0.972
19 irregular 5 81 481 51 1.500000e+00 0.466 faster 0 3.280824e+06 3.280826e+06 2.151
19 irregular 5 82 482 50 1.500000e+00 0.282 faster 0 3.280827e+06 3.280829e+06 2.085
19 irregular 5 83 483 71 2.500000e+00 0.587 slower 0 3.280830e+06 3.280833e+06 3.325
19 irregular 5 84 484 48 2.500000e+00 0.245 slower 1 3.280835e+06 3.280838e+06 3.174
19 irregular 5 85 485 71 2 0.297 faster 1 3.280839e+06 3.280842e+06 2.666
19 irregular 5 86 486 71 3 0.126 faster 1 3.280843e+06 3.280846e+06 3.443
19 irregular 5 87 487 50 2.500000e+00 0.579 slower 1 3.280848e+06 3.280851e+06 3.199
19 irregular 5 88 488 50 1 0.468 slower 1 3.280852e+06 3.280854e+06 1.682
19 irregular 5 89 489 69 3 0.183 faster 1 3.280855e+06 3.280859e+06 3.756
19 irregular 5 90 490 51 2.500000e+00 0.167 slower 1 3.280859e+06 3.280863e+06 3.230
19 irregular 5 91 491 52 2 0.182 slower 1 3.280864e+06 3.280866e+06 2.641
19 irregular 5 92 492 68 1.500000e+00 0.415 faster 1 3.280868e+06 3.280870e+06 2.081
19 irregular 5 93 493 67 1 0.568 faster 1 3.280871e+06 3.280873e+06 1.613
19 irregular 5 94 494 67 3 0.386 slower 0 3.280874e+06 3.280878e+06 3.737
19 irregular 5 95 495 68 1.500000e+00 0.459 faster 1 3.280880e+06 3.280882e+06 2.306
19 irregular 5 96 496 53 3 0.545 faster 0 3.280883e+06 3.280887e+06 3.546
19 irregular 5 97 497 52 3 0.105 faster 0 3.280888e+06 3.280892e+06 3.649
19 irregular 5 98 498 69 2.500000e+00 0.143 faster 1 3.280892e+06 3.280896e+06 3.203
19 irregular 5 99 499 69 2 0.100 faster 1 3.280896e+06 3.280899e+06 2.670
19 irregular 5 100 500 68 1 0.227 faster 1 3.280900e+06 3.280902e+06 1.708
19 regular 6 1 501 50 1.500000e+00 0.323 slower 1 3.544184e+06 3.544186e+06 2.174
19 regular 6 2 502 52 1.500000e+00 0.271 slower 1 3.544187e+06 3.544189e+06 2.082
19 regular 6 3 503 52 1.500000e+00 0.426 slower 1 3.544190e+06 3.544193e+06 2.348
19 regular 6 4 504 66 1.500000e+00 0.522 faster 1 3.544194e+06 3.544196e+06 2.185
19 regular 6 5 505 54 1.500000e+00 0.377 faster 0 3.544197e+06 3.544199e+06 2.008
19 regular 6 6 506 68 1.500000e+00 0.274 faster 1 3.544200e+06 3.544202e+06 2.000
19 regular 6 7 507 66 1.500000e+00 0.251 faster 1 3.544203e+06 3.544205e+06 2.014
19 regular 6 8 508 66 1.500000e+00 0.400 faster 1 3.544206e+06 3.544208e+06 1.938
19 regular 6 9 509 56 1.500000e+00 0.339 slower 1 3.544209e+06 3.544212e+06 2.396
19 regular 6 10 510 56 1.500000e+00 0.511 slower 1 3.544213e+06 3.544215e+06 2.024
19 regular 6 11 511 62 1.500000e+00 0.581 slower 0 3.544216e+06 3.544218e+06 2.163
19 regular 6 12 512 56 1.500000e+00 0.524 faster 0 3.544220e+06 3.544222e+06 2.098
19 regular 6 13 513 65 1.500000e+00 0.168 faster 1 3.544223e+06 3.544225e+06 1.980
19 regular 6 14 514 55 1.500000e+00 0.146 faster 0 3.544226e+06 3.544228e+06 2.034
19 regular 6 15 515 66 1.500000e+00 0.434 faster 1 3.544229e+06 3.544231e+06 2.002
19 regular 6 16 516 65 1.500000e+00 0.267 faster 1 3.544232e+06 3.544234e+06 1.955
19 regular 6 17 517 55 1.500000e+00 0.217 faster 0 3.544235e+06 3.544237e+06 2.019
19 regular 6 18 518 66 1.500000e+00 0.198 faster 1 3.544238e+06 3.544239e+06 1.919
19 regular 6 19 519 55 1.500000e+00 0.575 slower 1 3.544241e+06 3.544243e+06 2.205
19 regular 6 20 520 65 1.500000e+00 0.207 faster 1 3.544244e+06 3.544246e+06 1.984
19 regular 6 21 521 64 1.500000e+00 0.106 slower 0 3.544247e+06 3.544249e+06 2.469
19 regular 6 22 522 55 1.500000e+00 0.146 slower 1 3.544251e+06 3.544253e+06 2.292
19 regular 6 23 523 65 1.500000e+00 0.584 faster 1 3.544254e+06 3.544256e+06 2.138
19 regular 6 24 524 56 1.500000e+00 0.316 slower 1 3.544258e+06 3.544260e+06 2.190
19 regular 6 25 525 64 1.500000e+00 0.391 faster 1 3.544261e+06 3.544263e+06 2.129
19 regular 6 26 526 57 1.500000e+00 0.119 slower 1 3.544264e+06 3.544266e+06 2.228
19 regular 6 27 527 63 1.500000e+00 0.596 faster 1 3.544267e+06 3.544269e+06 1.875
19 regular 6 28 528 58 1.500000e+00 0.441 slower 1 3.544270e+06 3.544272e+06 2.032
19 regular 6 29 529 58 1.500000e+00 0.161 faster 0 3.544274e+06 3.544276e+06 2.019
19 regular 6 30 530 57 1.500000e+00 0.515 faster 0 3.544277e+06 3.544279e+06 1.905
19 regular 6 31 531 64 1.500000e+00 0.300 faster 1 3.544280e+06 3.544282e+06 2.302
19 regular 6 32 532 57 1.500000e+00 0.595 faster 0 3.544283e+06 3.544286e+06 2.051
19 regular 6 33 533 56 1.500000e+00 0.566 slower 1 3.544287e+06 3.544289e+06 2.147
19 regular 6 34 534 56 1.500000e+00 0.344 slower 1 3.544291e+06 3.544293e+06 2.688
19 regular 6 35 535 63 1.500000e+00 0.585 faster 1 3.544294e+06 3.544296e+06 1.966
19 regular 6 36 536 63 1.500000e+00 0.267 faster 1 3.544298e+06 3.544301e+06 3.111
19 regular 6 37 537 58 1.500000e+00 0.241 faster 0 3.544302e+06 3.544304e+06 2.250
19 regular 6 38 538 57 1.500000e+00 0.505 faster 0 3.544305e+06 3.544308e+06 2.410
19 regular 6 39 539 56 1.500000e+00 0.219 slower 1 3.544309e+06 3.544312e+06 2.438
19 regular 6 40 540 64 1.500000e+00 0.297 faster 1 3.544313e+06 3.544315e+06 2.014
19 regular 6 41 541 63 1.500000e+00 0.139 faster 1 3.544316e+06 3.544318e+06 1.966
19 regular 6 42 542 63 1.500000e+00 0.186 faster 1 3.544319e+06 3.544321e+06 2.100
19 regular 6 43 543 58 1.500000e+00 0.118 faster 0 3.544322e+06 3.544324e+06 2.034
19 regular 6 44 544 57 1.500000e+00 0.326 faster 0 3.544325e+06 3.544328e+06 2.438
19 regular 6 45 545 56 1.500000e+00 0.336 faster 0 3.544329e+06 3.544331e+06 2.431
19 regular 6 46 546 55 1.500000e+00 0.124 faster 0 3.544332e+06 3.544334e+06 2.169
19 regular 6 47 547 66 1.500000e+00 0.161 faster 1 3.544335e+06 3.544337e+06 2.086
19 regular 6 48 548 66 1.500000e+00 0.287 faster 1 3.544339e+06 3.544341e+06 2.283
19 regular 6 49 549 65 1.500000e+00 0.584 faster 1 3.544342e+06 3.544344e+06 2.336
19 regular 6 50 550 65 1.500000e+00 0.401 faster 1 3.544345e+06 3.544348e+06 3.098
19 regular 6 51 551 56 1.500000e+00 0.484 faster 0 3.544350e+06 3.544352e+06 2.266
19 regular 6 52 552 55 1.500000e+00 0.161 faster 0 3.544353e+06 3.544356e+06 2.592
19 regular 6 53 553 66 1.500000e+00 0.131 faster 1 3.544356e+06 3.544359e+06 2.452
19 regular 6 54 554 54 1.500000e+00 0.580 faster 0 3.544360e+06 3.544363e+06 2.537
19 regular 6 55 555 53 1.500000e+00 0.381 slower 1 3.544364e+06 3.544366e+06 2.230
19 regular 6 56 556 66 1.500000e+00 0.311 slower 0 3.544368e+06 3.544370e+06 2.251
19 regular 6 57 557 67 1.500000e+00 0.146 faster 1 3.544371e+06 3.544373e+06 2.378
19 regular 6 58 558 67 1.500000e+00 0.525 slower 0 3.544375e+06 3.544377e+06 2.298
19 regular 6 59 559 52 1.500000e+00 0.239 slower 1 3.544378e+06 3.544380e+06 2.221
19 regular 6 60 560 53 1.500000e+00 0.576 slower 1 3.544382e+06 3.544385e+06 2.669
19 regular 6 61 561 53 1.500000e+00 0.117 faster 0 3.544386e+06 3.544388e+06 2.254
19 regular 6 62 562 52 1.500000e+00 0.533 faster 0 3.544389e+06 3.544392e+06 2.684
19 regular 6 63 563 51 1.500000e+00 0.517 slower 1 3.544394e+06 3.544396e+06 2.143
19 regular 6 64 564 68 1.500000e+00 0.263 faster 1 3.544397e+06 3.544400e+06 2.689
19 regular 6 65 565 68 1.500000e+00 0.209 faster 1 3.544401e+06 3.544403e+06 2.136
19 regular 6 66 566 67 1.500000e+00 0.526 faster 1 3.544404e+06 3.544406e+06 2.045
19 regular 6 67 567 67 1.500000e+00 0.318 slower 0 3.544408e+06 3.544410e+06 2.379
19 regular 6 68 568 52 1.500000e+00 0.217 slower 1 3.544411e+06 3.544414e+06 2.453
19 regular 6 69 569 67 1.500000e+00 0.389 slower 0 3.544415e+06 3.544417e+06 2.263
19 regular 6 70 570 52 1.500000e+00 0.292 slower 1 3.544419e+06 3.544421e+06 2.345
19 regular 6 71 571 52 1.500000e+00 0.600 slower 1 3.544423e+06 3.544425e+06 2.255
19 regular 6 72 572 67 1.500000e+00 0.227 slower 0 3.544426e+06 3.544428e+06 2.294
19 regular 6 73 573 68 1.500000e+00 0.439 slower 0 3.544430e+06 3.544433e+06 2.905
19 regular 6 74 574 69 1.500000e+00 0.358 faster 1 3.544434e+06 3.544436e+06 2.065
19 regular 6 75 575 69 1.500000e+00 0.573 faster 1 3.544438e+06 3.544440e+06 2.044
19 regular 6 76 576 68 1.500000e+00 0.202 faster 1 3.544441e+06 3.544443e+06 2.172
19 regular 6 77 577 52 1.500000e+00 0.450 slower 1 3.544445e+06 3.544447e+06 2.291
19 regular 6 78 578 67 1.500000e+00 0.326 faster 1 3.544448e+06 3.544451e+06 2.653
19 regular 6 79 579 53 1.500000e+00 0.368 slower 1 3.544452e+06 3.544455e+06 2.295
19 regular 6 80 580 54 1.500000e+00 0.258 slower 1 3.544456e+06 3.544458e+06 2.010
19 regular 6 81 581 54 1.500000e+00 0.204 slower 1 3.544459e+06 3.544461e+06 2.277
19 regular 6 82 582 55 1.500000e+00 0.209 slower 1 3.544463e+06 3.544465e+06 2.512
19 regular 6 83 583 55 1.500000e+00 0.471 slower 1 3.544467e+06 3.544469e+06 2.266
19 regular 6 84 584 64 1.500000e+00 0.150 faster 1 3.544470e+06 3.544472e+06 2.181
19 regular 6 85 585 64 1.500000e+00 0.262 slower 0 3.544473e+06 3.544475e+06 2.084
19 regular 6 86 586 65 1.500000e+00 0.321 faster 1 3.544477e+06 3.544478e+06 1.947
19 regular 6 87 587 56 1.500000e+00 0.271 faster 0 3.544480e+06 3.544482e+06 1.955
19 regular 6 88 588 65 1.500000e+00 0.442 faster 1 3.544483e+06 3.544485e+06 2.126
19 regular 6 89 589 55 1.500000e+00 0.413 slower 1 3.544486e+06 3.544489e+06 2.516
19 regular 6 90 590 56 1.500000e+00 0.474 faster 0 3.544490e+06 3.544492e+06 2.167
19 regular 6 91 591 55 1.500000e+00 0.553 faster 0 3.544494e+06 3.544496e+06 2.292
19 regular 6 92 592 54 1.500000e+00 0.586 faster 0 3.544498e+06 3.544500e+06 2.262
19 regular 6 93 593 67 1.500000e+00 0.373 faster 1 3.544501e+06 3.544503e+06 2.000
19 regular 6 94 594 67 1.500000e+00 0.384 faster 1 3.544504e+06 3.544507e+06 2.013
19 regular 6 95 595 66 1.500000e+00 0.139 faster 1 3.544508e+06 3.544510e+06 2.479
19 regular 6 96 596 66 1.500000e+00 0.373 faster 1 3.544512e+06 3.544514e+06 2.567
19 regular 6 97 597 65 1.500000e+00 0.568 faster 1 3.544516e+06 3.544518e+06 2.189
19 regular 6 98 598 55 1.500000e+00 0.338 slower 1 3.544519e+06 3.544521e+06 2.165
19 regular 6 99 599 64 1.500000e+00 0.245 faster 1 3.544523e+06 3.544525e+06 2.220
19 regular 6 100 600 64 1.500000e+00 0.143 faster 1 3.544526e+06 3.544528e+06 2.141
19 irregular 7 1 601 57 3 0.477 faster 0 3.544540e+06 3.544545e+06 5.178
19 irregular 7 2 602 64 2.500000e+00 0.268 slower 0 3.544547e+06 3.544550e+06 3.080
19 irregular 7 3 603 65 1 0.436 slower 0 3.544551e+06 3.544553e+06 1.756
19 irregular 7 4 604 54 1.500000e+00 0.272 slower 1 3.544554e+06 3.544557e+06 2.243
19 irregular 7 5 605 66 2 0.172 faster 1 3.544558e+06 3.544561e+06 2.957
19 irregular 7 6 606 65 2.500000e+00 0.251 faster 1 3.544562e+06 3.544565e+06 3.197
19 irregular 7 7 607 65 1.500000e+00 0.108 faster 1 3.544566e+06 3.544569e+06 2.191
19 irregular 7 8 608 56 1.500000e+00 0.335 slower 1 3.544570e+06 3.544572e+06 2.070
19 irregular 7 9 609 64 1 0.296 faster 1 3.544573e+06 3.544575e+06 2.004
19 irregular 7 10 610 57 1 0.402 faster 0 3.544576e+06 3.544579e+06 2.018
19 irregular 7 11 611 56 2 0.363 faster 0 3.544580e+06 3.544583e+06 2.647
19 irregular 7 12 612 65 3 0.302 faster 1 3.544584e+06 3.544587e+06 3.812
19 irregular 7 13 613 55 2 0.119 slower 1 3.544589e+06 3.544591e+06 2.702
19 irregular 7 14 614 64 1 0.156 faster 1 3.544593e+06 3.544594e+06 1.836
19 irregular 7 15 615 56 1.500000e+00 0.292 faster 0 3.544595e+06 3.544597e+06 1.936
19 irregular 7 16 616 65 1.500000e+00 0.274 faster 1 3.544599e+06 3.544601e+06 2.040
19 irregular 7 17 617 56 1.500000e+00 0.496 slower 1 3.544602e+06 3.544604e+06 2.187
19 irregular 7 18 618 64 1 0.321 faster 1 3.544605e+06 3.544607e+06 1.820
19 irregular 7 19 619 63 1.500000e+00 0.246 faster 1 3.544608e+06 3.544610e+06 2.337
19 irregular 7 20 620 57 1.500000e+00 0.512 faster 0 3.544612e+06 3.544614e+06 2.249
19 irregular 7 21 621 64 2 0.448 faster 1 3.544615e+06 3.544618e+06 2.568
19 irregular 7 22 622 57 2.500000e+00 0.126 slower 1 3.544619e+06 3.544622e+06 3.196
19 irregular 7 23 623 57 1 0.533 faster 0 3.544624e+06 3.544626e+06 1.790
19 irregular 7 24 624 56 1.500000e+00 0.466 faster 0 3.544627e+06 3.544629e+06 2.130
19 irregular 7 25 625 55 2.500000e+00 0.480 slower 1 3.544631e+06 3.544634e+06 3.231
19 irregular 7 26 626 56 1 0.369 slower 1 3.544635e+06 3.544637e+06 1.854
19 irregular 7 27 627 64 2 0.426 slower 0 3.544639e+06 3.544642e+06 2.996
19 irregular 7 28 628 65 1 0.496 slower 0 3.544643e+06 3.544644e+06 1.757
19 irregular 7 29 629 54 2 0.562 faster 0 3.544646e+06 3.544649e+06 2.701
19 irregular 7 30 630 53 2.500000e+00 0.553 slower 1 3.544650e+06 3.544654e+06 3.100
19 irregular 7 31 631 66 1.500000e+00 0.514 slower 0 3.544655e+06 3.544657e+06 2.230
19 irregular 7 32 632 67 3 0.589 faster 1 3.544659e+06 3.544663e+06 3.950
19 irregular 7 33 633 53 2 0.447 faster 0 3.544665e+06 3.544668e+06 3.227
19 irregular 7 34 634 68 2.500000e+00 0.582 faster 1 3.544670e+06 3.544673e+06 3.448
19 irregular 7 35 635 53 1.500000e+00 0.459 slower 1 3.544675e+06 3.544677e+06 2.397
19 irregular 7 36 636 53 3 0.501 slower 1 3.544679e+06 3.544677e+06 -1.581
19 irregular 7 37 637 54 2 0.416 none 2 3.544683e+06 3.544688e+06 4.999
19 irregular 7 38 638 54 1 0.273 faster 0 3.544689e+06 3.544692e+06 2.747
19 irregular 7 39 639 53 2.500000e+00 0.346 slower 1 3.544693e+06 3.544697e+06 3.629
19 irregular 7 40 640 67 2 0.180 slower 0 3.544698e+06 3.544701e+06 2.677
19 irregular 7 41 641 68 1 0.329 slower 0 3.544702e+06 3.544704e+06 1.713
19 irregular 7 42 642 51 1 0.187 slower 1 3.544705e+06 3.544707e+06 1.829
19 irregular 7 43 643 68 2 0.287 slower 0 3.544708e+06 3.544711e+06 2.705
19 irregular 7 44 644 51 2 0.293 slower 1 3.544712e+06 3.544715e+06 2.711
19 irregular 7 45 645 69 2.500000e+00 0.406 faster 1 3.544716e+06 3.544720e+06 3.351
19 irregular 7 46 646 68 2 0.102 slower 0 3.544720e+06 3.544723e+06 2.803
19 irregular 7 47 647 51 2 0.382 faster 0 3.544724e+06 3.544727e+06 2.912
19 irregular 7 48 648 70 3 0.276 faster 1 3.544729e+06 3.544733e+06 4.070
19 irregular 7 49 649 70 1 0.446 faster 1 3.544734e+06 3.544736e+06 1.731
19 irregular 7 50 650 69 3 0.235 slower 0 3.544737e+06 3.544740e+06 3.662
19 irregular 7 51 651 50 3 0.238 faster 0 3.544742e+06 3.544745e+06 3.756
19 irregular 7 52 652 49 2.500000e+00 0.383 slower 1 3.544747e+06 3.544750e+06 3.128
19 irregular 7 53 653 71 1 0.521 faster 1 3.544751e+06 3.544753e+06 1.706
19 irregular 7 54 654 70 3 0.487 slower 0 3.544755e+06 3.544758e+06 3.689
19 irregular 7 55 655 71 2.500000e+00 0.364 slower 0 3.544760e+06 3.544763e+06 3.189
19 irregular 7 56 656 48 1.500000e+00 0.498 faster 0 3.544765e+06 3.544767e+06 2.596
19 irregular 7 57 657 73 1 0.521 faster 1 3.544769e+06 3.544771e+06 2.000
19 irregular 7 58 658 73 2 0.598 slower 0 3.544773e+06 3.544776e+06 3.613
19 irregular 7 59 659 74 2.500000e+00 0.368 slower 0 3.544778e+06 3.544781e+06 3.147
19 irregular 7 60 660 45 2 0.418 slower 1 3.544782e+06 3.544785e+06 2.549
19 irregular 7 61 661 74 2 0.541 faster 1 3.544786e+06 3.544790e+06 3.328
19 irregular 7 62 662 74 1.500000e+00 0.118 faster 1 3.544791e+06 3.544793e+06 2.295
19 irregular 7 63 663 47 3 0.438 slower 1 3.544794e+06 3.544798e+06 3.613
19 irregular 7 64 664 73 3 0.129 faster 1 3.544799e+06 3.544803e+06 3.656
19 irregular 7 65 665 48 1 0.143 faster 0 3.544804e+06 3.544806e+06 1.977
19 irregular 7 66 666 47 2.500000e+00 0.177 slower 1 3.544807e+06 3.544810e+06 3.168
19 irregular 7 67 667 47 3 0.495 slower 1 3.544812e+06 3.544815e+06 3.770
19 irregular 7 68 668 72 1.500000e+00 0.575 slower 0 3.544817e+06 3.544819e+06 2.131
19 irregular 7 69 669 73 2.500000e+00 0.349 faster 1 3.544821e+06 3.544824e+06 3.419
19 irregular 7 70 670 73 1.500000e+00 0.230 faster 1 3.544825e+06 3.544828e+06 2.317
19 irregular 7 71 671 72 1.500000e+00 0.596 faster 1 3.544829e+06 3.544831e+06 2.205
19 irregular 7 72 672 48 2.500000e+00 0.102 slower 1 3.544832e+06 3.544835e+06 3.071
19 irregular 7 73 673 71 2.500000e+00 0.340 faster 1 3.544837e+06 3.544840e+06 3.169
19 irregular 7 74 674 49 3 0.436 slower 1 3.544841e+06 3.544845e+06 3.617
19 irregular 7 75 675 70 1.500000e+00 0.296 faster 1 3.544846e+06 3.544849e+06 2.607
19 irregular 7 76 676 50 2.500000e+00 0.210 slower 1 3.544850e+06 3.544853e+06 3.083
19 irregular 7 77 677 69 3 0.418 slower 0 3.544855e+06 3.544859e+06 3.703
19 irregular 7 78 678 70 1 0.430 slower 0 3.544860e+06 3.544863e+06 2.492
19 irregular 7 79 679 49 2.500000e+00 0.408 slower 1 3.544864e+06 3.544867e+06 3.061
19 irregular 7 80 680 71 2.500000e+00 0.132 slower 0 3.544868e+06 3.544871e+06 3.093
19 irregular 7 81 681 48 1 0.496 slower 1 3.544873e+06 3.544875e+06 1.865
19 irregular 7 82 682 49 3 0.389 slower 1 3.544876e+06 3.544880e+06 3.691
19 irregular 7 83 683 49 3 0.168 slower 1 3.544881e+06 3.544885e+06 3.659
19 irregular 7 84 684 70 3 0.597 slower 0 3.544887e+06 3.544890e+06 3.717
19 irregular 7 85 685 49 3 0.190 slower 1 3.544892e+06 3.544895e+06 3.737
19 irregular 7 86 686 49 2 0.524 slower 1 3.544897e+06 3.544899e+06 2.532
19 irregular 7 87 687 70 3 0.485 slower 0 3.544901e+06 3.544899e+06 -1.551
19 irregular 7 88 688 49 2 0.248 slower 1 3.544905e+06 3.544908e+06 3.555
19 irregular 7 89 689 71 2 0.220 faster 1 3.544909e+06 3.544912e+06 2.685
19 irregular 7 90 690 70 3 0.113 slower 0 3.544913e+06 3.544917e+06 3.839
19 irregular 7 91 691 49 1 0.123 faster 0 3.544918e+06 3.544921e+06 2.105
19 irregular 7 92 692 72 2.500000e+00 0.501 faster 1 3.544922e+06 3.544926e+06 3.305
19 irregular 7 93 693 48 2.500000e+00 0.217 slower 1 3.544927e+06 3.544930e+06 3.169
19 irregular 7 94 694 49 1 0.238 none 2 3.544931e+06 3.544935e+06 4.000
19 irregular 7 95 695 49 1.500000e+00 0.378 slower 1 3.544936e+06 3.544939e+06 2.717
19 irregular 7 96 696 71 2 0.130 slower 0 3.544940e+06 3.544943e+06 2.690
19 irregular 7 97 697 48 3 0.196 slower 1 3.544944e+06 3.544948e+06 3.698
19 irregular 7 98 698 71 1.500000e+00 0.519 slower 0 3.544950e+06 3.544952e+06 2.534
19 irregular 7 99 699 48 1.500000e+00 0.346 slower 1 3.544954e+06 3.544956e+06 2.376
19 irregular 7 100 700 48 1 0.579 slower 1 3.544958e+06 3.544960e+06 2.493
19 regular 8 1 701 49 2 0.111 slower 1 3.544974e+06 3.544977e+06 3.038
19 regular 8 2 702 49 2 0.584 slower 1 3.544978e+06 3.544981e+06 2.600
19 regular 8 3 703 70 2 0.379 faster 1 3.544982e+06 3.544984e+06 2.495
19 regular 8 4 704 50 2 0.123 faster 0 3.544986e+06 3.544988e+06 2.790
19 regular 8 5 705 49 2 0.397 faster 0 3.544989e+06 3.544992e+06 2.826
19 regular 8 6 706 48 2 0.527 slower 1 3.544994e+06 3.544996e+06 2.622
19 regular 8 7 707 71 2 0.179 faster 1 3.544998e+06 3.545001e+06 2.910
19 regular 8 8 708 49 2 0.335 faster 0 3.545002e+06 3.545005e+06 2.842
19 regular 8 9 709 72 2 0.274 faster 1 3.545006e+06 3.545009e+06 2.773
19 regular 8 10 710 71 2 0.231 faster 1 3.545010e+06 3.545012e+06 2.579
19 regular 8 11 711 49 2 0.420 slower 1 3.545014e+06 3.545016e+06 2.578
19 regular 8 12 712 70 2 0.341 faster 1 3.545018e+06 3.545020e+06 2.610
19 regular 8 13 713 70 2 0.507 faster 1 3.545022e+06 3.545024e+06 2.532
19 regular 8 14 714 51 2 0.148 slower 1 3.545025e+06 3.545028e+06 2.695
19 regular 8 15 715 69 2 0.258 faster 1 3.545030e+06 3.545032e+06 2.458
19 regular 8 16 716 68 2 0.107 faster 1 3.545033e+06 3.545036e+06 2.474
19 regular 8 17 717 68 2 0.276 faster 1 3.545037e+06 3.545040e+06 2.815
19 regular 8 18 718 67 2 0.136 faster 1 3.545041e+06 3.545044e+06 2.907
19 regular 8 19 719 67 2 0.450 faster 1 3.545045e+06 3.545048e+06 2.502
19 regular 8 20 720 54 2 0.290 slower 1 3.545049e+06 3.545051e+06 2.715
19 regular 8 21 721 66 2 0.111 faster 1 3.545052e+06 3.545055e+06 2.585
19 regular 8 22 722 65 2 0.532 faster 1 3.545056e+06 3.545059e+06 2.467
19 regular 8 23 723 55 2 0.303 slower 1 3.545060e+06 3.545063e+06 2.594
19 regular 8 24 724 64 2 0.393 faster 1 3.545064e+06 3.545067e+06 2.528
19 regular 8 25 725 64 2 0.117 faster 1 3.545068e+06 3.545070e+06 2.466
19 regular 8 26 726 63 2 0.167 faster 1 3.545072e+06 3.545074e+06 2.527
19 regular 8 27 727 57 2 0.435 faster 0 3.545076e+06 3.545078e+06 2.549
19 regular 8 28 728 56 2 0.429 faster 0 3.545079e+06 3.545082e+06 2.619
19 regular 8 29 729 65 2 0.261 faster 1 3.545083e+06 3.545086e+06 2.549
19 regular 8 30 730 64 2 0.278 faster 1 3.545087e+06 3.545090e+06 2.465
19 regular 8 31 731 64 2 0.185 faster 1 3.545091e+06 3.545094e+06 2.588
19 regular 8 32 732 57 2 0.270 faster 0 3.545095e+06 3.545097e+06 2.542
19 regular 8 33 733 56 2 0.309 slower 1 3.545099e+06 3.545102e+06 2.910
19 regular 8 34 734 64 2 0.470 faster 1 3.545103e+06 3.545106e+06 2.635
19 regular 8 35 735 57 2 0.129 faster 0 3.545107e+06 3.545110e+06 2.542
19 regular 8 36 736 64 2 0.111 faster 1 3.545111e+06 3.545113e+06 2.491
19 regular 8 37 737 56 2 0.379 faster 0 3.545114e+06 3.545117e+06 2.492
19 regular 8 38 738 65 2 0.547 faster 1 3.545118e+06 3.545121e+06 2.447
19 regular 8 39 739 64 2 0.451 faster 1 3.545122e+06 3.545125e+06 2.442
19 regular 8 40 740 64 2 0.175 faster 1 3.545126e+06 3.545128e+06 2.487
19 regular 8 41 741 63 2 0.497 faster 1 3.545130e+06 3.545133e+06 2.529
19 regular 8 42 742 63 2 0.141 faster 1 3.545134e+06 3.545137e+06 2.597
19 regular 8 43 743 62 2 0.429 faster 1 3.545138e+06 3.545141e+06 2.549
19 regular 8 44 744 58 2 0.147 faster 0 3.545142e+06 3.545145e+06 2.484
19 regular 8 45 745 57 2 0.364 faster 0 3.545146e+06 3.545149e+06 2.484
19 regular 8 46 746 64 2 0.241 faster 1 3.545150e+06 3.545153e+06 2.641
19 regular 8 47 747 63 2 0.190 faster 1 3.545154e+06 3.545157e+06 2.652
19 regular 8 48 748 57 2 0.575 faster 0 3.545158e+06 3.545161e+06 2.784
19 regular 8 49 749 64 2 0.113 faster 1 3.545162e+06 3.545165e+06 2.864
19 regular 8 50 750 63 2 0.204 faster 1 3.545166e+06 3.545169e+06 2.732
19 regular 8 51 751 57 2 0.286 faster 0 3.545170e+06 3.545173e+06 2.552
19 regular 8 52 752 56 2 0.210 faster 0 3.545174e+06 3.545177e+06 2.793
19 regular 8 53 753 55 2 0.495 faster 0 3.545179e+06 3.545181e+06 2.767
19 regular 8 54 754 66 2 0.228 faster 1 3.545183e+06 3.545185e+06 2.548
19 regular 8 55 755 55 2 0.512 slower 1 3.545187e+06 3.545189e+06 2.535
19 regular 8 56 756 65 2 0.260 faster 1 3.545190e+06 3.545193e+06 2.723
19 regular 8 57 757 64 2 0.393 faster 1 3.545195e+06 3.545197e+06 2.537
19 regular 8 58 758 64 2 0.547 faster 1 3.545199e+06 3.545202e+06 2.543
19 regular 8 59 759 57 2 0.504 faster 0 3.545203e+06 3.545206e+06 2.594
19 regular 8 60 760 64 2 0.389 faster 1 3.545207e+06 3.545210e+06 2.512
19 regular 8 61 761 56 2 0.500 faster 0 3.545211e+06 3.545214e+06 2.630
19 regular 8 62 762 55 2 0.463 faster 0 3.545215e+06 3.545218e+06 2.666
19 regular 8 63 763 54 2 0.581 faster 0 3.545219e+06 3.545222e+06 2.526
19 regular 8 64 764 67 2 0.593 faster 1 3.545224e+06 3.545226e+06 2.529
19 regular 8 65 765 66 2 0.318 faster 1 3.545228e+06 3.545231e+06 3.061
19 regular 8 66 766 66 2 0.233 faster 1 3.545232e+06 3.545234e+06 2.628
19 regular 8 67 767 65 2 0.324 faster 1 3.545236e+06 3.545238e+06 2.659
19 regular 8 68 768 65 2 0.545 faster 1 3.545240e+06 3.545243e+06 2.895
19 regular 8 69 769 56 2 0.228 faster 0 3.545244e+06 3.545247e+06 2.576
19 regular 8 70 770 65 2 0.211 faster 1 3.545248e+06 3.545251e+06 2.589
19 regular 8 71 771 65 2 0.279 faster 1 3.545252e+06 3.545255e+06 2.597
19 regular 8 72 772 56 2 0.142 faster 0 3.545255e+06 3.545258e+06 2.737
19 regular 8 73 773 55 2 0.528 slower 1 3.545260e+06 3.545263e+06 2.848
19 regular 8 74 774 55 2 0.413 faster 0 3.545265e+06 3.545268e+06 3.019
19 regular 8 75 775 54 2 0.517 slower 1 3.545270e+06 3.545273e+06 2.841
19 regular 8 76 776 65 2 0.404 slower 0 3.545274e+06 3.545278e+06 3.152
19 regular 8 77 777 54 2 0.325 faster 0 3.545279e+06 3.545283e+06 3.213
19 regular 8 78 778 53 2 0.346 slower 1 3.545284e+06 3.545287e+06 2.959
19 regular 8 79 779 53 2 0.397 slower 1 3.545289e+06 3.545292e+06 2.867
19 regular 8 80 780 54 2 0.344 slower 1 3.545293e+06 3.545296e+06 2.751
19 regular 8 81 781 54 2 0.138 slower 1 3.545297e+06 3.545300e+06 2.856
19 regular 8 82 782 65 2 0.449 faster 1 3.545302e+06 3.545304e+06 2.561
19 regular 8 83 783 55 2 0.111 faster 0 3.545305e+06 3.545308e+06 2.712
19 regular 8 84 784 54 2 0.288 faster 0 3.545310e+06 3.545312e+06 2.678
19 regular 8 85 785 53 2 0.325 slower 1 3.545314e+06 3.545317e+06 3.042
19 regular 8 86 786 66 2 0.584 faster 1 3.545319e+06 3.545322e+06 2.697
19 regular 8 87 787 54 2 0.354 faster 0 3.545323e+06 3.545326e+06 2.725
19 regular 8 88 788 53 2 0.192 slower 1 3.545327e+06 3.545330e+06 3.120
19 regular 8 89 789 54 2 0.481 slower 1 3.545332e+06 3.545335e+06 3.079
19 regular 8 90 790 54 2 0.425 faster 0 3.545338e+06 3.545340e+06 2.650
19 regular 8 91 791 67 2 0.204 faster 1 3.545342e+06 3.545345e+06 2.585
19 regular 8 92 792 54 2 0.123 faster 0 3.545347e+06 3.545349e+06 2.487
19 regular 8 93 793 67 2 0.218 faster 1 3.545350e+06 3.545353e+06 2.971
19 regular 8 94 794 53 2 0.545 faster 0 3.545355e+06 3.545358e+06 2.476
19 regular 8 95 795 68 2 0.389 faster 1 3.545359e+06 3.545362e+06 2.491
19 regular 8 96 796 53 2 0.312 faster 0 3.545363e+06 3.545367e+06 3.454
19 regular 8 97 797 52 2 0.493 faster 0 3.545368e+06 3.545371e+06 2.557
19 regular 8 98 798 51 2 0.266 slower 1 3.545372e+06 3.545375e+06 2.750
19 regular 8 99 799 69 2 0.136 faster 1 3.545376e+06 3.545379e+06 2.629
19 regular 8 100 800 52 2 0.582 slower 1 3.545381e+06 3.545384e+06 2.702
19 irregular 9 1 801 68 3 0.236 faster 1 3.545396e+06 3.545400e+06 3.955
19 irregular 9 2 802 53 1.500000e+00 0.364 faster 0 3.545402e+06 3.545404e+06 2.405
19 irregular 9 3 803 52 2 0.142 slower 1 3.545406e+06 3.545408e+06 2.723
19 irregular 9 4 804 68 1.500000e+00 0.288 slower 0 3.545410e+06 3.545412e+06 2.479
19 irregular 9 5 805 69 2 0.239 slower 0 3.545415e+06 3.545418e+06 2.769
19 irregular 9 6 806 70 1 0.244 faster 1 3.545419e+06 3.545421e+06 1.815
19 irregular 9 7 807 51 1 0.251 faster 0 3.545423e+06 3.545425e+06 2.021
19 irregular 9 8 808 50 2 0.105 slower 1 3.545426e+06 3.545429e+06 2.682
19 irregular 9 9 809 50 3 0.396 faster 0 3.545431e+06 3.545435e+06 4.157
19 irregular 9 10 810 49 1 0.486 slower 1 3.545437e+06 3.545439e+06 2.092
19 irregular 9 11 811 50 2.500000e+00 0.290 slower 1 3.545440e+06 3.545443e+06 3.282
19 irregular 9 12 812 50 2 0.201 faster 0 3.545445e+06 3.545447e+06 2.616
19 irregular 9 13 813 71 2.500000e+00 0.327 slower 0 3.545449e+06 3.545452e+06 3.195
19 irregular 9 14 814 48 1.500000e+00 0.314 slower 1 3.545453e+06 3.545456e+06 2.300
19 irregular 9 15 815 49 1.500000e+00 0.367 slower 1 3.545457e+06 3.545460e+06 2.299
19 irregular 9 16 816 49 1.500000e+00 0.314 slower 1 3.545461e+06 3.545463e+06 2.170
19 irregular 9 17 817 50 1.500000e+00 0.113 slower 1 3.545464e+06 3.545466e+06 2.136
19 irregular 9 18 818 50 3 0.155 faster 0 3.545468e+06 3.545472e+06 3.943
19 irregular 9 19 819 49 2 0.226 faster 0 3.545473e+06 3.545476e+06 2.802
19 irregular 9 20 820 72 1 0.113 faster 1 3.545477e+06 3.545479e+06 1.786
19 irregular 9 21 821 49 1 0.150 faster 0 3.545480e+06 3.545483e+06 2.249
19 irregular 9 22 822 48 1.500000e+00 0.257 faster 0 3.545484e+06 3.545486e+06 2.419
19 irregular 9 23 823 73 1 0.580 slower 0 3.545488e+06 3.545490e+06 1.850
19 irregular 9 24 824 74 1.500000e+00 0.368 faster 1 3.545491e+06 3.545493e+06 2.066
19 irregular 9 25 825 74 2.500000e+00 0.401 faster 1 3.545495e+06 3.545498e+06 3.301
19 irregular 9 26 826 73 2 0.425 faster 1 3.545500e+06 3.545502e+06 2.588
19 irregular 9 27 827 73 2.500000e+00 0.340 faster 1 3.545504e+06 3.545507e+06 3.016
19 irregular 9 28 828 72 3 0.532 faster 1 3.545508e+06 3.545512e+06 3.610
19 irregular 9 29 829 72 2.500000e+00 0.420 faster 1 3.545514e+06 3.545517e+06 3.212
19 irregular 9 30 830 71 2.500000e+00 0.599 faster 1 3.545518e+06 3.545522e+06 3.138
19 irregular 9 31 831 49 2.500000e+00 0.499 slower 1 3.545523e+06 3.545526e+06 3.049
19 irregular 9 32 832 70 2 0.595 slower 0 3.545528e+06 3.545531e+06 2.863
19 irregular 9 33 833 49 2 0.234 slower 1 3.545532e+06 3.545535e+06 2.549
19 irregular 9 34 834 49 1 0.166 slower 1 3.545536e+06 3.545538e+06 1.837
19 irregular 9 35 835 70 1.500000e+00 0.460 faster 1 3.545539e+06 3.545541e+06 1.970
19 irregular 9 36 836 50 3 0.253 slower 1 3.545542e+06 3.545546e+06 3.516
19 irregular 9 37 837 69 1.500000e+00 0.387 faster 1 3.545547e+06 3.545549e+06 2.117
19 irregular 9 38 838 51 2.500000e+00 0.182 slower 1 3.545551e+06 3.545554e+06 3.159
19 irregular 9 39 839 52 3 0.226 slower 1 3.545555e+06 3.545559e+06 3.586
19 irregular 9 40 840 68 3 0.266 faster 1 3.545560e+06 3.545564e+06 4.083
19 irregular 9 41 841 53 1.500000e+00 0.338 faster 0 3.545566e+06 3.545568e+06 1.999
19 irregular 9 42 842 52 1.500000e+00 0.430 slower 1 3.545570e+06 3.545572e+06 2.088
19 irregular 9 43 843 68 3 0.308 slower 0 3.545573e+06 3.545577e+06 3.591
19 irregular 9 44 844 51 1 0.271 faster 0 3.545578e+06 3.545582e+06 3.676
19 irregular 9 45 845 70 2 0.226 faster 1 3.545583e+06 3.545585e+06 2.540
19 irregular 9 46 846 51 2.500000e+00 0.102 slower 1 3.545587e+06 3.545590e+06 3.069
19 irregular 9 47 847 69 3 0.275 faster 1 3.545591e+06 3.545595e+06 3.711
19 irregular 9 48 848 52 2 0.389 slower 1 3.545597e+06 3.545599e+06 2.563
19 irregular 9 49 849 52 3 0.434 faster 0 3.545601e+06 3.545605e+06 4.086
19 irregular 9 50 850 51 3 0.588 slower 1 3.545606e+06 3.545610e+06 3.567
19 irregular 9 51 851 68 3 0.265 faster 1 3.545611e+06 3.545616e+06 4.304
19 irregular 9 52 852 52 2.500000e+00 0.571 faster 0 3.545617e+06 3.545620e+06 3.319
19 irregular 9 53 853 51 3 0.141 slower 1 3.545621e+06 3.545625e+06 3.588
19 irregular 9 54 854 52 1 0.396 slower 1 3.545627e+06 3.545629e+06 1.905
19 irregular 9 55 855 68 1 0.214 faster 1 3.545631e+06 3.545633e+06 1.812
19 irregular 9 56 856 53 2.500000e+00 0.585 faster 0 3.545635e+06 3.545639e+06 3.962
19 irregular 9 57 857 52 1.500000e+00 0.396 slower 1 3.545641e+06 3.545643e+06 2.398
19 irregular 9 58 858 68 1 0.358 faster 1 3.545645e+06 3.545646e+06 1.837
19 irregular 9 59 859 53 3 0.591 slower 1 3.545648e+06 3.545652e+06 3.804
19 irregular 9 60 860 53 3 0.248 faster 0 3.545654e+06 3.545657e+06 3.717
19 irregular 9 61 861 52 2.500000e+00 0.216 faster 0 3.545668e+06 3.545671e+06 3.121
19 irregular 9 62 862 51 2 0.247 faster 0 3.545673e+06 3.545675e+06 2.762
19 irregular 9 63 863 70 2 0.156 faster 1 3.545677e+06 3.545679e+06 2.607
19 irregular 9 64 864 51 1 0.366 faster 0 3.545681e+06 3.545682e+06 1.655
19 irregular 9 65 865 50 2.500000e+00 0.165 slower 1 3.545683e+06 3.545687e+06 3.185
19 irregular 9 66 866 70 1.500000e+00 0.596 faster 1 3.545688e+06 3.545690e+06 2.082
19 irregular 9 67 867 69 1.500000e+00 0.428 faster 1 3.545692e+06 3.545694e+06 1.994
19 irregular 9 68 868 51 2 0.538 faster 0 3.545696e+06 3.545699e+06 2.610
19 irregular 9 69 869 70 2.500000e+00 0.195 slower 0 3.545702e+06 3.545705e+06 3.196
19 irregular 9 70 870 71 1 0.401 faster 1 3.545707e+06 3.545710e+06 2.106
19 irregular 9 71 871 70 2 0.106 faster 1 3.545711e+06 3.545714e+06 2.917
19 irregular 9 72 872 70 2 0.518 faster 1 3.545716e+06 3.545719e+06 2.658
19 irregular 9 73 873 51 3 0.498 slower 1 3.545720e+06 3.545724e+06 3.651
19 irregular 9 74 874 69 1 0.123 faster 1 3.545733e+06 3.545735e+06 1.995
19 irregular 9 75 875 68 2 0.414 faster 1 3.545736e+06 3.545739e+06 2.694
19 irregular 9 76 876 68 1.500000e+00 0.400 slower 0 3.545740e+06 3.545743e+06 2.624
19 irregular 9 77 877 51 1 0.402 slower 1 3.545744e+06 3.545746e+06 1.783
19 irregular 9 78 878 68 3 0.257 slower 0 3.545747e+06 3.545751e+06 3.740
19 irregular 9 79 879 69 2.500000e+00 0.133 faster 1 3.545752e+06 3.545756e+06 3.344
19 irregular 9 80 880 69 1 0.586 faster 1 3.545757e+06 3.545759e+06 2.001
19 irregular 9 81 881 68 2 0.279 slower 0 3.545761e+06 3.545764e+06 3.092
19 irregular 9 82 882 51 1 0.504 slower 1 3.545766e+06 3.545768e+06 2.087
19 irregular 9 83 883 69 2 0.568 slower 0 3.545769e+06 3.545773e+06 3.264
19 irregular 9 84 884 50 1 0.284 slower 1 3.545774e+06 3.545777e+06 3.391
19 irregular 9 85 885 51 2.500000e+00 0.208 slower 1 3.545779e+06 3.545782e+06 3.113
19 irregular 9 86 886 69 1 0.488 faster 1 3.545784e+06 3.545786e+06 2.044
19 irregular 9 87 887 52 1.500000e+00 0.260 none 2 3.545787e+06 3.545792e+06 4.499
19 irregular 9 88 888 68 1.500000e+00 0.598 slower 0 3.545793e+06 3.545795e+06 2.237
19 irregular 9 89 889 51 2.500000e+00 0.448 faster 0 3.545797e+06 3.545800e+06 3.464
19 irregular 9 90 890 70 2.500000e+00 0.267 faster 1 3.545801e+06 3.545805e+06 3.337
19 irregular 9 91 891 70 1.500000e+00 0.536 slower 0 3.545806e+06 3.545809e+06 2.277
19 irregular 9 92 892 71 3 0.308 slower 0 3.545810e+06 3.545814e+06 3.788
19 irregular 9 93 893 72 3 0.489 faster 1 3.545815e+06 3.545819e+06 4.026
19 irregular 9 94 894 71 2.500000e+00 0.462 slower 0 3.545821e+06 3.545824e+06 3.451
19 irregular 9 95 895 48 2 0.365 slower 1 3.545826e+06 3.545829e+06 2.632
19 irregular 9 96 896 72 3 0.242 faster 1 3.545830e+06 3.545833e+06 3.584
19 irregular 9 97 897 71 2.500000e+00 0.164 slower 0 3.545834e+06 3.545838e+06 3.335
19 irregular 9 98 898 72 1 0.560 faster 1 3.545839e+06 3.545841e+06 2.166
19 irregular 9 99 899 72 1.500000e+00 0.309 faster 1 3.545843e+06 3.545845e+06 2.325
19 irregular 9 100 900 49 2 0.505 slower 1 3.545850e+06 3.545853e+06 2.571
19 regular 10 1 901 71 1 0.558 faster 1 3.545876e+06 3.545878e+06 2.059
19 regular 10 2 902 50 1 0.263 slower 1 3.545879e+06 3.545880e+06 1.568
19 regular 10 3 903 50 1 0.156 slower 1 3.545882e+06 3.545883e+06 1.627
19 regular 10 4 904 69 1 0.463 faster 1 3.545884e+06 3.545886e+06 2.014
19 regular 10 5 905 69 1 0.143 faster 1 3.545887e+06 3.545889e+06 1.700
19 regular 10 6 906 52 1 0.391 faster 0 3.545890e+06 3.545892e+06 1.746
19 regular 10 7 907 51 1 0.473 faster 0 3.545893e+06 3.545895e+06 1.613
19 regular 10 8 908 50 1 0.468 faster 0 3.545896e+06 3.545898e+06 1.789
19 regular 10 9 909 71 1 0.554 faster 1 3.545900e+06 3.545901e+06 1.533
19 regular 10 10 910 49 1 0.165 faster 0 3.545902e+06 3.545904e+06 1.529
19 regular 10 11 911 48 1 0.231 faster 0 3.545905e+06 3.545907e+06 2.198
19 regular 10 12 912 73 1 0.317 faster 1 3.545908e+06 3.545909e+06 1.539
19 regular 10 13 913 72 1 0.523 faster 1 3.545911e+06 3.545913e+06 1.857
19 regular 10 14 914 72 1 0.261 faster 1 3.545914e+06 3.545915e+06 1.666
19 regular 10 15 915 71 1 0.493 slower 0 3.545917e+06 3.545918e+06 1.525
19 regular 10 16 916 48 1 0.571 slower 1 3.545920e+06 3.545922e+06 1.592
19 regular 10 17 917 48 1 0.505 slower 1 3.545923e+06 3.545925e+06 1.455
19 regular 10 18 918 71 1 0.528 faster 1 3.545926e+06 3.545928e+06 1.417
19 regular 10 19 919 71 1 0.478 faster 1 3.545932e+06 3.545934e+06 1.791
19 regular 10 20 920 70 1 0.337 faster 1 3.545936e+06 3.545937e+06 1.509
19 regular 10 21 921 50 1 0.457 slower 1 3.545939e+06 3.545941e+06 1.759
19 regular 10 22 922 51 1 0.477 faster 0 3.545942e+06 3.545944e+06 2.025
19 regular 10 23 923 70 1 0.405 faster 1 3.545946e+06 3.545948e+06 1.629
19 regular 10 24 924 70 1 0.164 faster 1 3.545949e+06 3.545951e+06 1.534
19 regular 10 25 925 51 1 0.280 slower 1 3.545952e+06 3.545954e+06 2.227
19 regular 10 26 926 69 1 0.252 faster 1 3.545958e+06 3.545960e+06 1.641
19 regular 10 27 927 52 1 0.541 faster 0 3.545962e+06 3.545963e+06 1.725
19 regular 10 28 928 51 1 0.237 faster 0 3.545965e+06 3.545966e+06 1.582
19 regular 10 29 929 70 1 0.198 faster 1 3.545967e+06 3.545969e+06 1.767
19 regular 10 30 930 50 1 0.385 faster 0 3.545970e+06 3.545972e+06 1.670
19 regular 10 31 931 71 1 0.558 faster 1 3.545973e+06 3.545975e+06 1.540
19 regular 10 32 932 50 1 0.473 faster 0 3.545976e+06 3.545977e+06 1.461
19 regular 10 33 933 49 1 0.316 slower 1 3.545979e+06 3.545981e+06 1.796
19 regular 10 34 934 49 1 0.245 faster 0 3.545982e+06 3.545984e+06 2.640
19 regular 10 35 935 72 1 0.323 faster 1 3.545986e+06 3.545987e+06 1.491
19 regular 10 36 936 49 1 0.403 slower 1 3.545989e+06 3.545991e+06 1.680
19 regular 10 37 937 71 1 0.276 faster 1 3.545992e+06 3.545993e+06 1.466
19 regular 10 38 938 50 1 0.438 faster 0 3.545995e+06 3.545997e+06 1.793
19 regular 10 39 939 49 1 0.201 faster 0 3.545998e+06 3.546000e+06 1.813
19 regular 10 40 940 48 1 0.152 slower 1 3.546001e+06 3.546003e+06 1.999
19 regular 10 41 941 48 1 0.187 faster 0 3.546005e+06 3.546006e+06 1.770
19 regular 10 42 942 73 1 0.422 faster 1 3.546008e+06 3.546009e+06 1.519
19 regular 10 43 943 72 1 0.545 faster 1 3.546011e+06 3.546013e+06 1.423
19 regular 10 44 944 72 1 0.322 faster 1 3.546014e+06 3.546016e+06 1.666
19 regular 10 45 945 71 1 0.579 faster 1 3.546020e+06 3.546021e+06 1.532
19 regular 10 46 946 49 1 0.327 faster 0 3.546023e+06 3.546024e+06 1.592
19 regular 10 47 947 72 1 0.411 faster 1 3.546026e+06 3.546027e+06 1.410
19 regular 10 48 948 49 1 0.291 faster 0 3.546029e+06 3.546030e+06 1.520
19 regular 10 49 949 72 1 0.389 faster 1 3.546032e+06 3.546033e+06 1.485
19 regular 10 50 950 48 1 0.300 faster 0 3.546035e+06 3.546037e+06 1.863
19 regular 10 51 951 73 1 0.170 faster 1 3.546038e+06 3.546040e+06 1.677
19 regular 10 52 952 48 1 0.457 slower 1 3.546041e+06 3.546043e+06 1.494
19 regular 10 53 953 72 1 0.514 faster 1 3.546044e+06 3.546046e+06 1.611
19 regular 10 54 954 71 1 0.498 faster 1 3.546047e+06 3.546049e+06 1.482
19 regular 10 55 955 49 1 0.218 slower 1 3.546050e+06 3.546052e+06 1.746
19 regular 10 56 956 50 1 0.424 slower 1 3.546053e+06 3.546055e+06 1.837
19 regular 10 57 957 50 1 0.114 faster 0 3.546056e+06 3.546058e+06 2.079
19 regular 10 58 958 49 1 0.346 faster 0 3.546065e+06 3.546066e+06 1.445
19 regular 10 59 959 48 1 0.180 slower 1 3.546067e+06 3.546069e+06 1.522
19 regular 10 60 960 71 1 0.331 faster 1 3.546070e+06 3.546072e+06 1.416
19 regular 10 61 961 49 1 0.408 faster 0 3.546073e+06 3.546074e+06 1.461
19 regular 10 62 962 72 1 0.220 faster 1 3.546076e+06 3.546077e+06 1.546
19 regular 10 63 963 71 1 0.171 faster 1 3.546079e+06 3.546080e+06 1.521
19 regular 10 64 964 71 1 0.120 faster 1 3.546081e+06 3.546083e+06 1.416
19 regular 10 65 965 50 1 0.516 slower 1 3.546084e+06 3.546086e+06 1.642
19 regular 10 66 966 70 1 0.239 faster 1 3.546087e+06 3.546089e+06 1.487
19 regular 10 67 967 69 1 0.176 faster 1 3.546090e+06 3.546092e+06 1.540
19 regular 10 68 968 69 1 0.350 faster 1 3.546093e+06 3.546095e+06 1.543
19 regular 10 69 969 52 1 0.392 faster 0 3.546096e+06 3.546097e+06 1.438
19 regular 10 70 970 51 1 0.143 faster 0 3.546099e+06 3.546101e+06 1.749
19 regular 10 71 971 50 1 0.588 faster 0 3.546109e+06 3.546110e+06 1.692
19 regular 10 72 972 71 1 0.406 faster 1 3.546112e+06 3.546113e+06 1.444
19 regular 10 73 973 49 1 0.571 slower 1 3.546115e+06 3.546117e+06 2.158
19 regular 10 74 974 70 1 0.226 faster 1 3.546118e+06 3.546120e+06 1.552
19 regular 10 75 975 50 1 0.430 faster 0 3.546121e+06 3.546123e+06 1.763
19 regular 10 76 976 49 1 0.305 slower 1 3.546125e+06 3.546126e+06 1.718
19 regular 10 77 977 70 1 0.253 faster 1 3.546128e+06 3.546129e+06 1.534
19 regular 10 78 978 50 1 0.305 slower 1 3.546131e+06 3.546132e+06 1.614
19 regular 10 79 979 51 1 0.327 faster 0 3.546134e+06 3.546136e+06 1.810
19 regular 10 80 980 50 1 0.354 faster 0 3.546137e+06 3.546139e+06 1.542
19 regular 10 81 981 71 1 0.344 faster 1 3.546141e+06 3.546143e+06 1.893
19 regular 10 82 982 49 1 0.147 slower 1 3.546144e+06 3.546146e+06 1.810
19 regular 10 83 983 70 1 0.416 faster 1 3.546148e+06 3.546149e+06 1.748
19 regular 10 84 984 50 1 0.265 faster 0 3.546151e+06 3.546152e+06 1.595
19 regular 10 85 985 49 1 0.177 faster 0 3.546153e+06 3.546155e+06 1.697
19 regular 10 86 986 72 1 0.196 faster 1 3.546156e+06 3.546158e+06 1.487
19 regular 10 87 987 71 1 0.488 faster 1 3.546159e+06 3.546161e+06 1.678
19 regular 10 88 988 71 1 0.367 faster 1 3.546162e+06 3.546164e+06 1.718
19 regular 10 89 989 50 1 0.427 faster 0 3.546166e+06 3.546167e+06 1.549
19 regular 10 90 990 71 1 0.388 faster 1 3.546169e+06 3.546170e+06 1.527
19 regular 10 91 991 49 1 0.335 slower 1 3.546172e+06 3.546173e+06 1.633
19 regular 10 92 992 70 1 0.427 faster 1 3.546175e+06 3.546177e+06 1.873
19 regular 10 93 993 70 1 0.413 faster 1 3.546178e+06 3.546180e+06 1.517
19 regular 10 94 994 69 1 0.166 faster 1 3.546181e+06 3.546183e+06 1.470
19 regular 10 95 995 51 1 0.320 slower 1 3.546184e+06 3.546186e+06 1.792
19 regular 10 96 996 68 1 0.588 faster 1 3.546188e+06 3.546190e+06 1.545
19 regular 10 97 997 52 1 0.249 faster 0 3.546191e+06 3.546193e+06 1.555
19 regular 10 98 998 69 1 0.449 faster 1 3.546194e+06 3.546196e+06 1.589
19 regular 10 99 999 68 1 0.497 faster 1 3.546197e+06 3.546199e+06 1.482
19 regular 10 100 1000 68 1 0.231 faster 1 3.546200e+06 3.546202e+06 1.532
