subNo condition blockNo trialNo trialID currentFrequency cueTargetInterval randomPreCueInterval response responseAccuracy startTime responseTime RT
30 regular 1 1 1 37 2.500000e+00 0.296 slower 1 2.079861e+06 2.079865e+06 3.883
30 regular 1 2 2 37 2.500000e+00 0.112 slower 1 2.079865e+06 2.079869e+06 3.645
30 regular 1 3 3 81 2.500000e+00 0.592 faster 1 2.079871e+06 2.079874e+06 3.108
30 regular 1 4 4 81 2.500000e+00 0.164 faster 1 2.079875e+06 2.079879e+06 3.845
30 regular 1 5 5 41 2.500000e+00 0.131 slower 1 2.079880e+06 2.079884e+06 3.332
30 regular 1 6 6 41 2.500000e+00 0.275 slower 1 2.079884e+06 2.079888e+06 3.201
30 regular 1 7 7 43 2.500000e+00 0.482 slower 1 2.079889e+06 2.079892e+06 3.207
30 regular 1 8 8 77 2.500000e+00 0.370 faster 1 2.079893e+06 2.079897e+06 3.364
30 regular 1 9 9 45 2.500000e+00 0.255 slower 1 2.079898e+06 2.079901e+06 3.422
30 regular 1 10 10 45 2.500000e+00 0.255 slower 1 2.079903e+06 2.079906e+06 3.338
30 regular 1 11 11 47 2.500000e+00 0.379 faster 0 2.079907e+06 2.079910e+06 3.102
30 regular 1 12 12 45 2.500000e+00 0.575 faster 0 2.079912e+06 2.079915e+06 3.686
30 regular 1 13 13 77 2.500000e+00 0.342 faster 1 2.079917e+06 2.079920e+06 3.340
30 regular 1 14 14 43 2.500000e+00 0.538 faster 0 2.079922e+06 2.079925e+06 3.353
30 regular 1 15 15 79 2.500000e+00 0.331 faster 1 2.079926e+06 2.079929e+06 3.416
30 regular 1 16 16 77 2.500000e+00 0.188 faster 1 2.079931e+06 2.079934e+06 3.308
30 regular 1 17 17 77 2.500000e+00 0.431 faster 1 2.079935e+06 2.079939e+06 3.235
30 regular 1 18 18 45 2.500000e+00 0.486 slower 1 2.079940e+06 2.079944e+06 3.390
30 regular 1 19 19 45 2.500000e+00 0.113 faster 0 2.079945e+06 2.079949e+06 3.765
30 regular 1 20 20 43 2.500000e+00 0.471 slower 1 2.079950e+06 2.079953e+06 3.720
30 regular 1 21 21 76 2.500000e+00 0.260 faster 1 2.079955e+06 2.079958e+06 3.253
30 regular 1 22 22 76 2.500000e+00 0.153 faster 1 2.079959e+06 2.079962e+06 3.138
30 regular 1 23 23 75 2.500000e+00 0.265 slower 0 2.079963e+06 2.079967e+06 3.706
30 regular 1 24 24 44 2.500000e+00 0.566 slower 1 2.079969e+06 2.079972e+06 3.750
30 regular 1 25 25 76 2.500000e+00 0.558 faster 1 2.079974e+06 2.079977e+06 3.250
30 regular 1 26 26 45 2.500000e+00 0.456 slower 1 2.079978e+06 2.079982e+06 3.186
30 regular 1 27 27 45 2.500000e+00 0.474 slower 1 2.079983e+06 2.079986e+06 3.233
30 regular 1 28 28 46 2.500000e+00 0.156 slower 1 2.079988e+06 2.079991e+06 3.384
30 regular 1 29 29 74 2.500000e+00 0.443 faster 1 2.079992e+06 2.079996e+06 3.256
30 regular 1 30 30 73 2.500000e+00 0.581 faster 1 2.079997e+06 2.080001e+06 3.426
30 regular 1 31 31 73 2.500000e+00 0.464 faster 1 2.080002e+06 2.080005e+06 3.187
30 regular 1 32 32 72 2.500000e+00 0.461 faster 1 2.080007e+06 2.080010e+06 3.249
30 regular 1 33 33 48 2.500000e+00 0.228 faster 0 2.080011e+06 2.080015e+06 3.814
30 regular 1 34 34 73 2.500000e+00 0.482 faster 1 2.080017e+06 2.080020e+06 3.749
30 regular 1 35 35 48 2.500000e+00 0.579 faster 0 2.080022e+06 2.080026e+06 3.686
30 regular 1 36 36 47 2.500000e+00 0.526 slower 1 2.080027e+06 2.080031e+06 3.410
30 regular 1 37 37 73 2.500000e+00 0.317 faster 1 2.080032e+06 2.080035e+06 3.452
30 regular 1 38 38 48 2.500000e+00 0.510 faster 0 2.080037e+06 2.080041e+06 3.944
30 regular 1 39 39 47 2.500000e+00 0.471 slower 1 2.080042e+06 2.080046e+06 3.665
30 regular 1 40 40 73 2.500000e+00 0.466 faster 1 2.080047e+06 2.080051e+06 3.323
30 regular 1 41 41 48 2.500000e+00 0.162 faster 0 2.080051e+06 2.080055e+06 3.578
30 regular 1 42 42 47 2.500000e+00 0.159 faster 0 2.080056e+06 2.080060e+06 3.638
30 regular 1 43 43 74 2.500000e+00 0.103 faster 1 2.080061e+06 2.080064e+06 3.258
30 regular 1 44 44 46 2.500000e+00 0.242 slower 1 2.080066e+06 2.080069e+06 3.300
30 regular 1 45 45 47 2.500000e+00 0.464 faster 0 2.080070e+06 2.080074e+06 3.765
30 regular 1 46 46 46 2.500000e+00 0.388 faster 0 2.080076e+06 2.080079e+06 3.473
30 regular 1 47 47 75 2.500000e+00 0.241 slower 0 2.080080e+06 2.080084e+06 3.557
30 regular 1 48 48 44 2.500000e+00 0.238 slower 1 2.080085e+06 2.080089e+06 4.095
30 regular 1 49 49 76 2.500000e+00 0.491 slower 0 2.080090e+06 2.080094e+06 3.453
30 regular 1 50 50 43 2.500000e+00 0.173 slower 1 2.080095e+06 2.080099e+06 3.981
30 regular 1 51 51 76 2.500000e+00 0.467 faster 1 2.080100e+06 2.080105e+06 4.181
30 regular 1 52 52 44 2.500000e+00 0.122 faster 0 2.080106e+06 2.080109e+06 3.485
30 regular 1 53 53 77 2.500000e+00 0.156 slower 0 2.080110e+06 2.080113e+06 3.332
30 regular 1 54 54 42 2.500000e+00 0.247 slower 1 2.080115e+06 2.080118e+06 3.296
30 regular 1 55 55 43 2.500000e+00 0.167 faster 0 2.080119e+06 2.080123e+06 3.426
30 regular 1 56 56 42 2.500000e+00 0.188 slower 1 2.080124e+06 2.080127e+06 3.408
30 regular 1 57 57 42 2.500000e+00 0.521 slower 1 2.080129e+06 2.080132e+06 3.302
30 regular 1 58 58 43 2.500000e+00 0.427 slower 1 2.080133e+06 2.080137e+06 3.344
30 regular 1 59 59 43 2.500000e+00 0.207 slower 1 2.080138e+06 2.080141e+06 3.191
30 regular 1 60 60 76 2.500000e+00 0.598 slower 0 2.080143e+06 2.080146e+06 3.678
30 regular 1 61 61 43 2.500000e+00 0.546 slower 1 2.080148e+06 2.080151e+06 3.281
30 regular 1 62 62 43 2.500000e+00 0.171 slower 1 2.080152e+06 2.080156e+06 3.439
30 regular 1 63 63 44 2.500000e+00 0.288 slower 1 2.080157e+06 2.080160e+06 3.249
30 regular 1 64 64 76 2.500000e+00 0.263 faster 1 2.080163e+06 2.080166e+06 3.319
30 regular 1 65 65 75 2.500000e+00 0.215 faster 1 2.080167e+06 2.080170e+06 3.194
30 regular 1 66 66 75 2.500000e+00 0.578 faster 1 2.080172e+06 2.080175e+06 3.489
30 regular 1 67 67 74 2.500000e+00 0.324 faster 1 2.080176e+06 2.080179e+06 3.258
30 regular 1 68 68 74 2.500000e+00 0.144 slower 0 2.080180e+06 2.080185e+06 4.372
30 regular 1 69 69 45 2.500000e+00 0.471 faster 0 2.080186e+06 2.080190e+06 3.376
30 regular 1 70 70 76 2.500000e+00 0.328 faster 1 2.080191e+06 2.080194e+06 3.387
30 regular 1 71 71 75 2.500000e+00 0.531 faster 1 2.080196e+06 2.080199e+06 3.365
30 regular 1 72 72 75 2.500000e+00 0.252 faster 1 2.080201e+06 2.080205e+06 3.544
30 regular 1 73 73 74 2.500000e+00 0.446 faster 1 2.080207e+06 2.080210e+06 3.866
30 regular 1 74 74 74 2.500000e+00 0.510 faster 1 2.080212e+06 2.080215e+06 3.284
30 regular 1 75 75 47 2.500000e+00 0.312 faster 0 2.080216e+06 2.080220e+06 3.446
30 regular 1 76 76 74 2.500000e+00 0.302 faster 1 2.080221e+06 2.080225e+06 3.687
30 regular 1 77 77 74 2.500000e+00 0.159 faster 1 2.080226e+06 2.080230e+06 3.434
30 regular 1 78 78 73 2.500000e+00 0.497 faster 1 2.080232e+06 2.080235e+06 3.511
30 regular 1 79 79 73 2.500000e+00 0.573 slower 0 2.080237e+06 2.080240e+06 3.368
30 regular 1 80 80 46 2.500000e+00 0.294 slower 1 2.080241e+06 2.080245e+06 3.487
30 regular 1 81 81 73 2.500000e+00 0.360 faster 1 2.080246e+06 2.080250e+06 3.622
30 regular 1 82 82 73 2.500000e+00 0.502 faster 1 2.080251e+06 2.080255e+06 3.788
30 regular 1 83 83 48 2.500000e+00 0.471 faster 0 2.080257e+06 2.080260e+06 3.385
30 regular 1 84 84 73 2.500000e+00 0.141 faster 1 2.080261e+06 2.080265e+06 3.903
30 regular 1 85 85 73 2.500000e+00 0.424 faster 1 2.080267e+06 2.080270e+06 3.351
30 regular 1 86 86 48 2.500000e+00 0.183 slower 1 2.080271e+06 2.080275e+06 3.745
30 regular 1 87 87 72 2.500000e+00 0.161 faster 1 2.080277e+06 2.080280e+06 3.441
30 regular 1 88 88 71 2.500000e+00 0.488 faster 1 2.080282e+06 2.080285e+06 3.387
30 regular 1 89 89 49 2.500000e+00 0.540 faster 0 2.080287e+06 2.080290e+06 3.328
30 regular 1 90 90 48 2.500000e+00 0.155 slower 1 2.080291e+06 2.080295e+06 3.418
30 regular 1 91 91 71 2.500000e+00 0.360 slower 0 2.080296e+06 2.080300e+06 3.926
30 regular 1 92 92 48 2.500000e+00 0.202 faster 0 2.080301e+06 2.080304e+06 3.304
30 regular 1 93 93 73 2.500000e+00 0.212 faster 1 2.080305e+06 2.080309e+06 3.621
30 regular 1 94 94 73 2.500000e+00 0.464 faster 1 2.080311e+06 2.080314e+06 3.191
30 regular 1 95 95 48 2.500000e+00 0.498 faster 0 2.080316e+06 2.080319e+06 3.351
30 regular 1 96 96 73 2.500000e+00 0.376 faster 1 2.080321e+06 2.080324e+06 3.816
30 regular 1 97 97 47 2.500000e+00 0.332 slower 1 2.080326e+06 2.080330e+06 3.430
30 regular 1 98 98 72 2.500000e+00 0.124 faster 1 2.080331e+06 2.080334e+06 3.572
30 regular 1 99 99 72 2.500000e+00 0.452 faster 1 2.080336e+06 2.080340e+06 3.828
30 regular 1 100 100 49 2.500000e+00 0.144 faster 0 2.080341e+06 2.080344e+06 3.523
30 irregular 2 1 101 48 1.500000e+00 0.375 faster 0 2.080367e+06 2.080370e+06 3.121
30 irregular 2 2 102 47 3 0.113 slower 1 2.080370e+06 2.080375e+06 4.065
30 irregular 2 3 103 47 3 0.419 faster 0 2.080376e+06 2.080380e+06 4.003
30 irregular 2 4 104 46 2.500000e+00 0.274 slower 1 2.080381e+06 2.080385e+06 3.795
30 irregular 2 5 105 73 3 0.438 faster 1 2.080386e+06 2.080390e+06 3.748
30 irregular 2 6 106 73 1.500000e+00 0.262 faster 1 2.080391e+06 2.080393e+06 2.246
30 irregular 2 7 107 72 1 0.494 faster 1 2.080395e+06 2.080397e+06 1.759
30 irregular 2 8 108 48 2.500000e+00 0.322 slower 1 2.080398e+06 2.080401e+06 3.643
30 irregular 2 9 109 49 1.500000e+00 0.460 faster 0 2.080403e+06 2.080405e+06 2.299
30 irregular 2 10 110 48 1 0.308 faster 0 2.080406e+06 2.080409e+06 2.123
30 irregular 2 11 111 47 1.500000e+00 0.540 slower 1 2.080410e+06 2.080412e+06 2.268
30 irregular 2 12 112 73 1 0.398 faster 1 2.080414e+06 2.080415e+06 1.616
30 irregular 2 13 113 48 1 0.187 faster 0 2.080416e+06 2.080418e+06 1.634
30 irregular 2 14 114 73 1 0.189 faster 1 2.080419e+06 2.080421e+06 1.949
30 irregular 2 15 115 47 2.500000e+00 0.520 slower 1 2.080423e+06 2.080426e+06 3.288
30 irregular 2 16 116 48 1.500000e+00 0.494 slower 1 2.080428e+06 2.080430e+06 2.815
30 irregular 2 17 117 48 2 0.577 slower 1 2.080432e+06 2.080434e+06 2.785
30 irregular 2 18 118 71 2 0.534 faster 1 2.080436e+06 2.080439e+06 2.719
30 irregular 2 19 119 71 2 0.223 faster 1 2.080439e+06 2.080442e+06 2.744
30 irregular 2 20 120 70 1 0.132 faster 1 2.080443e+06 2.080445e+06 1.764
30 irregular 2 21 121 50 1 0.507 faster 0 2.080446e+06 2.080448e+06 1.801
30 irregular 2 22 122 71 2.500000e+00 0.221 faster 1 2.080449e+06 2.080452e+06 3.187
30 irregular 2 23 123 50 3 0.437 slower 1 2.080454e+06 2.080458e+06 3.693
30 irregular 2 24 124 70 1.500000e+00 0.479 faster 1 2.080459e+06 2.080461e+06 2.146
30 irregular 2 25 125 51 2 0.580 slower 1 2.080463e+06 2.080466e+06 2.736
30 irregular 2 26 126 51 1 0.127 faster 0 2.080467e+06 2.080469e+06 1.696
30 irregular 2 27 127 70 2 0.192 faster 1 2.080469e+06 2.080472e+06 2.709
30 irregular 2 28 128 51 2.500000e+00 0.494 slower 1 2.080474e+06 2.080477e+06 3.248
30 irregular 2 29 129 51 2 0.517 faster 0 2.080478e+06 2.080481e+06 2.755
30 irregular 2 30 130 50 2.500000e+00 0.585 slower 1 2.080483e+06 2.080486e+06 3.160
30 irregular 2 31 131 51 2 0.100 slower 1 2.080487e+06 2.080490e+06 2.773
30 irregular 2 32 132 69 1.500000e+00 0.301 faster 1 2.080492e+06 2.080494e+06 2.301
30 irregular 2 33 133 52 2.500000e+00 0.135 slower 1 2.080495e+06 2.080498e+06 3.244
30 irregular 2 34 134 52 2.500000e+00 0.407 slower 1 2.080500e+06 2.080503e+06 3.280
30 irregular 2 35 135 53 1 0.448 faster 0 2.080504e+06 2.080506e+06 1.765
30 irregular 2 36 136 68 1 0.190 faster 1 2.080507e+06 2.080509e+06 1.772
30 irregular 2 37 137 68 2.500000e+00 0.227 faster 1 2.080510e+06 2.080513e+06 3.348
30 irregular 2 38 138 67 3 0.156 faster 1 2.080515e+06 2.080519e+06 4.137
30 irregular 2 39 139 67 2 0.323 faster 1 2.080520e+06 2.080523e+06 3.099
30 irregular 2 40 140 66 1 0.486 faster 1 2.080525e+06 2.080526e+06 1.881
30 irregular 2 41 141 66 1 0.323 faster 1 2.080528e+06 2.080530e+06 1.899
30 irregular 2 42 142 65 1 0.529 slower 0 2.080531e+06 2.080533e+06 1.994
30 irregular 2 43 143 54 3 0.340 slower 1 2.080534e+06 2.080538e+06 3.854
30 irregular 2 44 144 54 3 0.216 slower 1 2.080539e+06 2.080543e+06 3.902
30 irregular 2 45 145 65 2.500000e+00 0.293 slower 0 2.080544e+06 2.080547e+06 3.256
30 irregular 2 46 146 66 2 0.502 slower 0 2.080549e+06 2.080552e+06 2.610
30 irregular 2 47 147 67 2 0.530 faster 1 2.080553e+06 2.080556e+06 2.692
30 irregular 2 48 148 67 3 0.139 slower 0 2.080557e+06 2.080561e+06 3.755
30 irregular 2 49 149 52 2.500000e+00 0.573 slower 1 2.080562e+06 2.080566e+06 3.267
30 irregular 2 50 150 53 1 0.598 faster 0 2.080568e+06 2.080569e+06 1.729
30 irregular 2 51 151 52 1.500000e+00 0.158 slower 1 2.080571e+06 2.080573e+06 2.503
30 irregular 2 52 152 68 2.500000e+00 0.433 faster 1 2.080575e+06 2.080578e+06 3.323
30 irregular 2 53 153 53 2 0.347 faster 0 2.080579e+06 2.080582e+06 2.751
30 irregular 2 54 154 52 2 0.408 slower 1 2.080583e+06 2.080586e+06 2.786
30 irregular 2 55 155 52 2.500000e+00 0.580 slower 1 2.080587e+06 2.080591e+06 3.434
30 irregular 2 56 156 53 3 0.307 faster 0 2.080592e+06 2.080597e+06 4.525
30 irregular 2 57 157 68 2 0.321 faster 1 2.080598e+06 2.080601e+06 3.101
30 irregular 2 58 158 68 1 0.510 faster 1 2.080603e+06 2.080604e+06 1.711
30 irregular 2 59 159 67 3 0.126 faster 1 2.080606e+06 2.080609e+06 3.768
30 irregular 2 60 160 67 3 0.212 faster 1 2.080611e+06 2.080615e+06 4.336
30 irregular 2 61 161 54 3 0.156 slower 1 2.080616e+06 2.080620e+06 3.731
30 irregular 2 62 162 54 1.500000e+00 0.470 slower 1 2.080621e+06 2.080623e+06 2.273
30 irregular 2 63 163 65 3 0.255 faster 1 2.080625e+06 2.080629e+06 4.061
30 irregular 2 64 164 65 2.500000e+00 0.552 faster 1 2.080630e+06 2.080634e+06 3.614
30 irregular 2 65 165 56 1 0.516 slower 1 2.080635e+06 2.080638e+06 2.315
30 irregular 2 66 166 56 2 0.297 slower 1 2.080639e+06 2.080642e+06 3.545
30 irregular 2 67 167 63 1.500000e+00 0.291 faster 1 2.080643e+06 2.080646e+06 2.845
30 irregular 2 68 168 63 1 0.185 faster 1 2.080648e+06 2.080649e+06 1.661
30 irregular 2 69 169 62 2.500000e+00 0.288 faster 1 2.080651e+06 2.080654e+06 3.525
30 irregular 2 70 170 58 1 0.448 slower 1 2.080656e+06 2.080658e+06 1.838
30 irregular 2 71 171 59 1.500000e+00 0.147 slower 1 2.080659e+06 2.080662e+06 2.593
30 irregular 2 72 172 59 3 0.116 slower 1 2.080663e+06 2.080667e+06 4.267
30 irregular 2 73 173 61 1.500000e+00 0.282 slower 0 2.080669e+06 2.080671e+06 2.574
30 irregular 2 74 174 58 2 0.392 slower 1 2.080673e+06 2.080676e+06 3.181
30 irregular 2 75 175 62 3 0.357 faster 1 2.080677e+06 2.080681e+06 3.813
30 irregular 2 76 176 59 2 0.174 slower 1 2.080682e+06 2.080685e+06 2.775
30 irregular 2 77 177 59 1 0.583 faster 0 2.080687e+06 2.080689e+06 1.833
30 irregular 2 78 178 62 1.500000e+00 0.368 faster 1 2.080690e+06 2.080692e+06 2.371
30 irregular 2 79 179 61 2 0.165 slower 0 2.080693e+06 2.080697e+06 3.327
30 irregular 2 80 180 62 1.500000e+00 0.562 faster 1 2.080698e+06 2.080700e+06 2.292
30 irregular 2 81 181 62 2.500000e+00 0.371 faster 1 2.080702e+06 2.080705e+06 3.328
30 irregular 2 82 182 61 1.500000e+00 0.303 faster 1 2.080706e+06 2.080708e+06 2.320
30 irregular 2 83 183 59 2.500000e+00 0.262 slower 1 2.080709e+06 2.080712e+06 3.318
30 irregular 2 84 184 59 1.500000e+00 0.483 slower 1 2.080714e+06 2.080717e+06 2.535
30 irregular 2 85 185 61 2 0.554 slower 0 2.080718e+06 2.080721e+06 2.735
30 irregular 2 86 186 62 2.500000e+00 0.572 faster 1 2.080723e+06 2.080726e+06 3.174
30 irregular 2 87 187 61 3 0.504 slower 0 2.080727e+06 2.080731e+06 3.772
30 irregular 2 88 188 62 3 0.427 slower 0 2.080733e+06 2.080737e+06 4.204
30 irregular 2 89 189 57 1.500000e+00 0.467 faster 0 2.080738e+06 2.080741e+06 2.562
30 irregular 2 90 190 64 2.500000e+00 0.599 faster 1 2.080743e+06 2.080746e+06 3.264
30 irregular 2 91 191 64 2 0.390 faster 1 2.080747e+06 2.080750e+06 2.663
30 irregular 2 92 192 63 1.500000e+00 0.182 faster 1 2.080751e+06 2.080753e+06 2.185
30 irregular 2 93 193 57 2 0.158 slower 1 2.080755e+06 2.080757e+06 2.857
30 irregular 2 94 194 62 1.500000e+00 0.308 faster 1 2.080759e+06 2.080762e+06 3.489
30 irregular 2 95 195 58 3 0.180 slower 1 2.080764e+06 2.080767e+06 3.713
30 irregular 2 96 196 61 2.500000e+00 0.454 slower 0 2.080769e+06 2.080772e+06 3.282
30 irregular 2 97 197 62 3 0.493 faster 1 2.080774e+06 2.080778e+06 3.822
30 irregular 2 98 198 58 3 0.528 slower 1 2.080779e+06 2.080783e+06 3.682
30 irregular 2 99 199 59 1.500000e+00 0.173 faster 0 2.080784e+06 2.080786e+06 2.388
30 irregular 2 100 200 58 1 0.458 faster 0 2.080788e+06 2.080790e+06 1.749
30 regular 3 1 201 57 1.500000e+00 0.360 faster 0 2.080814e+06 2.080816e+06 2.349
30 regular 3 2 202 64 1.500000e+00 0.252 faster 1 2.080817e+06 2.080820e+06 2.261
30 regular 3 3 203 56 1.500000e+00 0.254 faster 0 2.080821e+06 2.080823e+06 2.265
30 regular 3 4 204 55 1.500000e+00 0.165 faster 0 2.080824e+06 2.080826e+06 2.593
30 regular 3 5 205 54 1.500000e+00 0.287 faster 0 2.080827e+06 2.080830e+06 2.204
30 regular 3 6 206 53 1.500000e+00 0.283 faster 0 2.080831e+06 2.080833e+06 2.217
30 regular 3 7 207 68 1.500000e+00 0.548 faster 1 2.080834e+06 2.080837e+06 2.333
30 regular 3 8 208 53 1.500000e+00 0.548 slower 1 2.080838e+06 2.080840e+06 2.188
30 regular 3 9 209 53 1.500000e+00 0.197 faster 0 2.080842e+06 2.080844e+06 2.291
30 regular 3 10 210 68 1.500000e+00 0.562 faster 1 2.080845e+06 2.080847e+06 2.136
30 regular 3 11 211 53 1.500000e+00 0.167 slower 1 2.080848e+06 2.080851e+06 2.568
30 regular 3 12 212 53 1.500000e+00 0.546 faster 0 2.080853e+06 2.080855e+06 2.645
30 regular 3 13 213 52 1.500000e+00 0.176 slower 1 2.080856e+06 2.080859e+06 2.806
30 regular 3 14 214 53 1.500000e+00 0.513 faster 0 2.080861e+06 2.080863e+06 2.198
30 regular 3 15 215 52 1.500000e+00 0.336 slower 1 2.080864e+06 2.080867e+06 2.179
30 regular 3 16 216 68 1.500000e+00 0.330 faster 1 2.080868e+06 2.080870e+06 2.284
30 regular 3 17 217 67 1.500000e+00 0.394 slower 0 2.080871e+06 2.080873e+06 2.241
30 regular 3 18 218 68 1.500000e+00 0.192 faster 1 2.080875e+06 2.080877e+06 2.098
30 regular 3 19 219 68 1.500000e+00 0.295 faster 1 2.080878e+06 2.080881e+06 2.521
30 regular 3 20 220 67 1.500000e+00 0.308 slower 0 2.080882e+06 2.080884e+06 2.278
30 regular 3 21 221 68 1.500000e+00 0.264 faster 1 2.080885e+06 2.080888e+06 2.280
30 regular 3 22 222 68 1.500000e+00 0.461 faster 1 2.080889e+06 2.080892e+06 2.488
30 regular 3 23 223 67 1.500000e+00 0.233 faster 1 2.080893e+06 2.080896e+06 3.001
30 regular 3 24 224 67 1.500000e+00 0.485 slower 0 2.080897e+06 2.080900e+06 2.242
30 regular 3 25 225 68 1.500000e+00 0.555 faster 1 2.080901e+06 2.080903e+06 2.116
30 regular 3 26 226 53 1.500000e+00 0.527 slower 1 2.080905e+06 2.080907e+06 2.428
30 regular 3 27 227 53 1.500000e+00 0.552 slower 1 2.080909e+06 2.080911e+06 2.281
30 regular 3 28 228 54 1.500000e+00 0.399 slower 1 2.080913e+06 2.080915e+06 2.644
30 regular 3 29 229 66 1.500000e+00 0.254 faster 1 2.080917e+06 2.080919e+06 2.150
30 regular 3 30 230 55 1.500000e+00 0.118 faster 0 2.080920e+06 2.080923e+06 3.042
30 regular 3 31 231 66 1.500000e+00 0.459 slower 0 2.080924e+06 2.080927e+06 2.888
30 regular 3 32 232 67 1.500000e+00 0.530 faster 1 2.080929e+06 2.080931e+06 2.255
30 regular 3 33 233 53 1.500000e+00 0.402 slower 1 2.080933e+06 2.080935e+06 2.654
30 regular 3 34 234 54 1.500000e+00 0.440 faster 0 2.080937e+06 2.080939e+06 2.310
30 regular 3 35 235 53 1.500000e+00 0.172 faster 0 2.080940e+06 2.080942e+06 2.343
30 regular 3 36 236 52 1.500000e+00 0.144 faster 0 2.080944e+06 2.080947e+06 2.816
30 regular 3 37 237 51 1.500000e+00 0.314 slower 1 2.080948e+06 2.080950e+06 2.399
30 regular 3 38 238 69 1.500000e+00 0.568 slower 0 2.080952e+06 2.080954e+06 2.481
30 regular 3 39 239 50 1.500000e+00 0.505 faster 0 2.080955e+06 2.080958e+06 2.138
30 regular 3 40 240 71 1.500000e+00 0.346 slower 0 2.080959e+06 2.080961e+06 2.235
30 regular 3 41 241 48 1.500000e+00 0.537 faster 0 2.080963e+06 2.080965e+06 2.270
30 regular 3 42 242 73 1.500000e+00 0.267 faster 1 2.080966e+06 2.080969e+06 3.124
30 regular 3 43 243 48 1.500000e+00 0.240 slower 1 2.080970e+06 2.080973e+06 2.276
30 regular 3 44 244 48 1.500000e+00 0.114 faster 0 2.080974e+06 2.080976e+06 2.446
30 regular 3 45 245 47 1.500000e+00 0.511 slower 1 2.080978e+06 2.080980e+06 2.477
30 regular 3 46 246 48 1.500000e+00 0.121 slower 1 2.080981e+06 2.080984e+06 2.356
30 regular 3 47 247 48 1.500000e+00 0.217 slower 1 2.080985e+06 2.080987e+06 2.455
30 regular 3 48 248 71 1.500000e+00 0.469 faster 1 2.080989e+06 2.080992e+06 2.763
30 regular 3 49 249 71 1.500000e+00 0.382 slower 0 2.080993e+06 2.080995e+06 2.285
30 regular 3 50 250 72 1.500000e+00 0.110 faster 1 2.080996e+06 2.080999e+06 2.220
30 regular 3 51 251 49 1.500000e+00 0.585 faster 0 2.081000e+06 2.081002e+06 2.352
30 regular 3 52 252 72 1.500000e+00 0.539 slower 0 2.081004e+06 2.081006e+06 2.547
30 regular 3 53 253 47 1.500000e+00 0.533 slower 1 2.081008e+06 2.081010e+06 2.254
30 regular 3 54 254 47 1.500000e+00 0.438 slower 1 2.081012e+06 2.081015e+06 2.576
30 regular 3 55 255 48 1.500000e+00 0.231 slower 1 2.081016e+06 2.081018e+06 2.270
30 regular 3 56 256 72 1.500000e+00 0.508 faster 1 2.081020e+06 2.081022e+06 2.238
30 regular 3 57 257 71 1.500000e+00 0.188 faster 1 2.081023e+06 2.081026e+06 2.609
30 regular 3 58 258 71 1.500000e+00 0.101 faster 1 2.081027e+06 2.081030e+06 2.511
30 regular 3 59 259 50 1.500000e+00 0.419 faster 0 2.081031e+06 2.081033e+06 2.299
30 regular 3 60 260 49 1.500000e+00 0.218 faster 0 2.081035e+06 2.081037e+06 2.334
30 regular 3 61 261 72 1.500000e+00 0.247 slower 0 2.081038e+06 2.081040e+06 2.243
30 regular 3 62 262 73 1.500000e+00 0.219 slower 0 2.081042e+06 2.081044e+06 2.292
30 regular 3 63 263 74 1.500000e+00 0.101 slower 0 2.081045e+06 2.081047e+06 2.316
30 regular 3 64 264 75 1.500000e+00 0.491 slower 0 2.081049e+06 2.081051e+06 2.281
30 regular 3 65 265 44 1.500000e+00 0.558 slower 1 2.081053e+06 2.081055e+06 2.296
30 regular 3 66 266 44 1.500000e+00 0.345 slower 1 2.081056e+06 2.081058e+06 2.199
30 regular 3 67 267 45 1.500000e+00 0.524 slower 1 2.081060e+06 2.081064e+06 3.712
30 regular 3 68 268 75 1.500000e+00 0.274 faster 1 2.081065e+06 2.081068e+06 3.065
30 regular 3 69 269 74 1.500000e+00 0.490 faster 1 2.081069e+06 2.081072e+06 2.367
30 regular 3 70 270 74 1.500000e+00 0.545 faster 1 2.081073e+06 2.081076e+06 2.313
30 regular 3 71 271 73 1.500000e+00 0.100 faster 1 2.081077e+06 2.081079e+06 2.406
30 regular 3 72 272 73 1.500000e+00 0.500 faster 1 2.081081e+06 2.081083e+06 2.589
30 regular 3 73 273 48 1.500000e+00 0.257 faster 0 2.081085e+06 2.081088e+06 2.960
30 regular 3 74 274 73 1.500000e+00 0.573 faster 1 2.081089e+06 2.081092e+06 2.591
30 regular 3 75 275 73 1.500000e+00 0.128 slower 0 2.081093e+06 2.081096e+06 2.839
30 regular 3 76 276 46 1.500000e+00 0.467 slower 1 2.081097e+06 2.081100e+06 2.703
30 regular 3 77 277 73 1.500000e+00 0.303 faster 1 2.081101e+06 2.081104e+06 2.412
30 regular 3 78 278 73 1.500000e+00 0.377 faster 1 2.081105e+06 2.081108e+06 2.614
30 regular 3 79 279 48 1.500000e+00 0.563 slower 1 2.081110e+06 2.081112e+06 2.569
30 regular 3 80 280 48 1.500000e+00 0.112 slower 1 2.081113e+06 2.081116e+06 2.719
30 regular 3 81 281 71 1.500000e+00 0.164 slower 0 2.081117e+06 2.081120e+06 2.470
30 regular 3 82 282 72 1.500000e+00 0.274 slower 0 2.081121e+06 2.081124e+06 2.676
30 regular 3 83 283 73 1.500000e+00 0.383 faster 1 2.081125e+06 2.081127e+06 2.276
30 regular 3 84 284 47 1.500000e+00 0.329 faster 0 2.081129e+06 2.081131e+06 2.754
30 regular 3 85 285 74 1.500000e+00 0.264 faster 1 2.081133e+06 2.081135e+06 2.287
30 regular 3 86 286 47 1.500000e+00 0.120 slower 1 2.081136e+06 2.081139e+06 2.252
30 regular 3 87 287 47 1.500000e+00 0.330 faster 0 2.081140e+06 2.081142e+06 2.408
30 regular 3 88 288 74 1.500000e+00 0.542 slower 0 2.081144e+06 2.081146e+06 2.190
30 regular 3 89 289 75 1.500000e+00 0.400 slower 0 2.081148e+06 2.081150e+06 2.498
30 regular 3 90 290 44 1.500000e+00 0.431 slower 1 2.081152e+06 2.081154e+06 2.313
30 regular 3 91 291 45 1.500000e+00 0.212 faster 0 2.081155e+06 2.081158e+06 3.065
30 regular 3 92 292 44 1.500000e+00 0.290 slower 1 2.081159e+06 2.081162e+06 2.207
30 regular 3 93 293 76 1.500000e+00 0.270 faster 1 2.081163e+06 2.081165e+06 2.210
30 regular 3 94 294 75 1.500000e+00 0.391 faster 1 2.081167e+06 2.081169e+06 2.499
30 regular 3 95 295 75 1.500000e+00 0.349 slower 0 2.081171e+06 2.081173e+06 2.717
30 regular 3 96 296 76 1.500000e+00 0.374 faster 1 2.081175e+06 2.081178e+06 2.866
30 regular 3 97 297 45 1.500000e+00 0.513 slower 1 2.081179e+06 2.081181e+06 2.122
30 regular 3 98 298 45 1.500000e+00 0.508 slower 1 2.081183e+06 2.081185e+06 2.254
30 regular 3 99 299 46 1.500000e+00 0.318 slower 1 2.081187e+06 2.081189e+06 2.309
30 regular 3 100 300 74 1.500000e+00 0.573 faster 1 2.081190e+06 2.081193e+06 2.282
30 irregular 4 1 301 73 1.500000e+00 0.232 faster 1 2.081219e+06 2.081222e+06 2.717
30 irregular 4 2 302 47 1 0.372 slower 1 2.081223e+06 2.081226e+06 2.213
30 irregular 4 3 303 72 2.500000e+00 0.119 faster 1 2.081226e+06 2.081230e+06 3.549
30 irregular 4 4 304 72 1 0.341 faster 1 2.081231e+06 2.081233e+06 1.684
30 irregular 4 5 305 71 2.500000e+00 0.329 faster 1 2.081234e+06 2.081237e+06 3.319
30 irregular 4 6 306 71 2.500000e+00 0.330 faster 1 2.081238e+06 2.081241e+06 3.429
30 irregular 4 7 307 70 2.500000e+00 0.267 slower 0 2.081242e+06 2.081246e+06 3.241
30 irregular 4 8 308 71 3 0.510 faster 1 2.081247e+06 2.081251e+06 3.783
30 irregular 4 9 309 49 1.500000e+00 0.466 slower 1 2.081252e+06 2.081254e+06 2.242
30 irregular 4 10 310 70 2.500000e+00 0.472 faster 1 2.081255e+06 2.081259e+06 3.325
30 irregular 4 11 311 70 1 0.518 faster 1 2.081260e+06 2.081262e+06 2.070
30 irregular 4 12 312 69 2 0.358 slower 0 2.081263e+06 2.081266e+06 2.811
30 irregular 4 13 313 50 3 0.539 slower 1 2.081268e+06 2.081272e+06 3.961
30 irregular 4 14 314 50 2.500000e+00 0.595 faster 0 2.081274e+06 2.081278e+06 3.872
30 irregular 4 15 315 71 3 0.153 faster 1 2.081279e+06 2.081283e+06 3.837
30 irregular 4 16 316 50 1 0.557 faster 0 2.081284e+06 2.081286e+06 1.953
30 irregular 4 17 317 49 2 0.291 slower 1 2.081287e+06 2.081290e+06 2.882
30 irregular 4 18 318 49 2 0.220 slower 1 2.081291e+06 2.081294e+06 2.846
30 irregular 4 19 319 70 1.500000e+00 0.490 faster 1 2.081296e+06 2.081298e+06 2.553
30 irregular 4 20 320 70 1.500000e+00 0.438 faster 1 2.081300e+06 2.081302e+06 2.590
30 irregular 4 21 321 69 1.500000e+00 0.285 faster 1 2.081303e+06 2.081306e+06 2.267
30 irregular 4 22 322 69 1 0.554 faster 1 2.081307e+06 2.081309e+06 1.623
30 irregular 4 23 323 52 3 0.268 slower 1 2.081310e+06 2.081314e+06 3.868
30 irregular 4 24 324 52 2.500000e+00 0.274 slower 1 2.081315e+06 2.081318e+06 3.280
30 irregular 4 25 325 53 2.500000e+00 0.146 slower 1 2.081319e+06 2.081322e+06 3.238
30 irregular 4 26 326 53 1.500000e+00 0.297 faster 0 2.081323e+06 2.081326e+06 2.675
30 irregular 4 27 327 52 1.500000e+00 0.273 slower 1 2.081327e+06 2.081329e+06 2.402
30 irregular 4 28 328 67 3 0.537 slower 0 2.081330e+06 2.081334e+06 3.751
30 irregular 4 29 329 68 1.500000e+00 0.145 slower 0 2.081335e+06 2.081338e+06 2.499
30 irregular 4 30 330 51 1 0.523 faster 0 2.081339e+06 2.081341e+06 1.761
30 irregular 4 31 331 50 3 0.326 faster 0 2.081342e+06 2.081347e+06 4.322
30 irregular 4 32 332 49 2 0.197 faster 0 2.081348e+06 2.081351e+06 3.080
30 irregular 4 33 333 72 3 0.265 faster 1 2.081352e+06 2.081356e+06 4.088
30 irregular 4 34 334 48 2.500000e+00 0.357 slower 1 2.081358e+06 2.081361e+06 3.276
30 irregular 4 35 335 71 2.500000e+00 0.220 faster 1 2.081362e+06 2.081365e+06 3.343
30 irregular 4 36 336 71 1.500000e+00 0.365 faster 1 2.081367e+06 2.081369e+06 2.252
30 irregular 4 37 337 50 2 0.310 faster 0 2.081371e+06 2.081373e+06 2.807
30 irregular 4 38 338 71 1 0.321 faster 1 2.081375e+06 2.081376e+06 1.778
30 irregular 4 39 339 49 2.500000e+00 0.180 slower 1 2.081378e+06 2.081381e+06 3.315
30 irregular 4 40 340 70 2.500000e+00 0.264 faster 1 2.081382e+06 2.081385e+06 3.339
30 irregular 4 41 341 50 1 0.428 faster 0 2.081387e+06 2.081389e+06 1.694
30 irregular 4 42 342 71 2 0.487 faster 1 2.081390e+06 2.081393e+06 2.652
30 irregular 4 43 343 50 1.500000e+00 0.454 faster 0 2.081394e+06 2.081397e+06 2.306
30 irregular 4 44 344 71 1 0.383 faster 1 2.081398e+06 2.081400e+06 1.790
30 irregular 4 45 345 49 3 0.396 faster 0 2.081401e+06 2.081405e+06 4.121
30 irregular 4 46 346 48 1.500000e+00 0.325 slower 1 2.081406e+06 2.081409e+06 2.403
30 irregular 4 47 347 49 1 0.382 faster 0 2.081410e+06 2.081412e+06 1.806
30 irregular 4 48 348 72 2 0.526 faster 1 2.081414e+06 2.081417e+06 3.052
30 irregular 4 49 349 72 2.500000e+00 0.156 slower 0 2.081418e+06 2.081421e+06 3.271
30 irregular 4 50 350 73 2 0.127 faster 1 2.081422e+06 2.081425e+06 2.708
30 irregular 4 51 351 72 2 0.527 faster 1 2.081427e+06 2.081429e+06 2.781
30 irregular 4 52 352 48 2.500000e+00 0.589 slower 1 2.081431e+06 2.081435e+06 3.716
30 irregular 4 53 353 49 3 0.421 slower 1 2.081436e+06 2.081440e+06 3.721
30 irregular 4 54 354 71 2.500000e+00 0.539 faster 1 2.081442e+06 2.081445e+06 3.201
30 irregular 4 55 355 50 2 0.501 faster 0 2.081446e+06 2.081449e+06 2.915
30 irregular 4 56 356 49 2.500000e+00 0.101 slower 1 2.081451e+06 2.081454e+06 3.267
30 irregular 4 57 357 49 2 0.320 slower 1 2.081455e+06 2.081458e+06 2.792
30 irregular 4 58 358 50 2.500000e+00 0.348 slower 1 2.081460e+06 2.081463e+06 3.209
30 irregular 4 59 359 70 2 0.138 faster 1 2.081464e+06 2.081467e+06 2.692
30 irregular 4 60 360 69 1 0.517 faster 1 2.081468e+06 2.081470e+06 2.096
30 irregular 4 61 361 51 1 0.585 faster 0 2.081472e+06 2.081474e+06 2.059
30 irregular 4 62 362 70 2 0.581 faster 1 2.081476e+06 2.081479e+06 2.972
30 irregular 4 63 363 69 1.500000e+00 0.290 faster 1 2.081481e+06 2.081483e+06 2.126
30 irregular 4 64 364 51 2 0.422 faster 0 2.081485e+06 2.081487e+06 2.833
30 irregular 4 65 365 70 2 0.523 faster 1 2.081489e+06 2.081492e+06 3.042
30 irregular 4 66 366 51 1.500000e+00 0.595 slower 1 2.081494e+06 2.081496e+06 2.463
30 irregular 4 67 367 51 1.500000e+00 0.193 slower 1 2.081497e+06 2.081499e+06 2.215
30 irregular 4 68 368 68 1 0.401 faster 1 2.081501e+06 2.081503e+06 2.223
30 irregular 4 69 369 68 2.500000e+00 0.393 faster 1 2.081505e+06 2.081508e+06 3.519
30 irregular 4 70 370 53 3 0.361 slower 1 2.081510e+06 2.081514e+06 3.751
30 irregular 4 71 371 53 2.500000e+00 0.155 slower 1 2.081515e+06 2.081518e+06 3.251
30 irregular 4 72 372 66 1 0.570 faster 1 2.081519e+06 2.081521e+06 1.880
30 irregular 4 73 373 66 2 0.102 slower 0 2.081522e+06 2.081525e+06 2.892
30 irregular 4 74 374 67 1 0.553 faster 1 2.081527e+06 2.081529e+06 1.710
30 irregular 4 75 375 54 2 0.138 slower 1 2.081530e+06 2.081533e+06 2.917
30 irregular 4 76 376 66 2 0.231 faster 1 2.081534e+06 2.081537e+06 2.708
30 irregular 4 77 377 65 3 0.270 slower 0 2.081538e+06 2.081542e+06 4.428
30 irregular 4 78 378 54 1.500000e+00 0.440 slower 1 2.081544e+06 2.081546e+06 2.158
30 irregular 4 79 379 66 3 0.547 faster 1 2.081548e+06 2.081552e+06 3.781
30 irregular 4 80 380 55 1 0.495 slower 1 2.081553e+06 2.081555e+06 1.802
30 irregular 4 81 381 65 1.500000e+00 0.246 slower 0 2.081556e+06 2.081558e+06 2.407
30 irregular 4 82 382 66 3 0.114 faster 1 2.081559e+06 2.081564e+06 4.294
30 irregular 4 83 383 65 3 0.323 slower 0 2.081565e+06 2.081569e+06 3.691
30 irregular 4 84 384 54 1.500000e+00 0.388 slower 1 2.081571e+06 2.081573e+06 2.180
30 irregular 4 85 385 54 3 0.299 slower 1 2.081574e+06 2.081578e+06 3.700
30 irregular 4 86 386 55 1 0.194 slower 1 2.081578e+06 2.081581e+06 2.481
30 irregular 4 87 387 55 1 0.267 slower 1 2.081582e+06 2.081584e+06 1.787
30 irregular 4 88 388 56 2.500000e+00 0.410 slower 1 2.081585e+06 2.081588e+06 3.184
30 irregular 4 89 389 56 3 0.545 slower 1 2.081589e+06 2.081594e+06 4.657
30 irregular 4 90 390 63 3 0.450 faster 1 2.081596e+06 2.081600e+06 3.864
30 irregular 4 91 391 57 1 0.300 faster 0 2.081601e+06 2.081603e+06 2.147
30 irregular 4 92 392 64 1 0.533 slower 0 2.081604e+06 2.081606e+06 2.174
30 irregular 4 93 393 65 1.500000e+00 0.214 slower 0 2.081607e+06 2.081610e+06 2.380
30 irregular 4 94 394 54 3 0.535 slower 1 2.081611e+06 2.081615e+06 3.792
30 irregular 4 95 395 55 3 0.385 slower 1 2.081616e+06 2.081620e+06 3.971
30 irregular 4 96 396 55 2 0.425 slower 1 2.081622e+06 2.081625e+06 2.794
30 irregular 4 97 397 56 1.500000e+00 0.388 faster 0 2.081626e+06 2.081628e+06 2.245
30 irregular 4 98 398 65 3 0.446 faster 1 2.081630e+06 2.081634e+06 3.991
30 irregular 4 99 399 65 1.500000e+00 0.335 slower 0 2.081635e+06 2.081637e+06 2.256
30 irregular 4 100 400 54 2 0.157 slower 1 2.081639e+06 2.081641e+06 2.824
30 regular 5 1 401 65 1 0.108 faster 1 2.081662e+06 2.081664e+06 1.988
30 regular 5 2 402 65 1 0.297 faster 1 2.081665e+06 2.081667e+06 1.735
30 regular 5 3 403 56 1 0.222 faster 0 2.081668e+06 2.081669e+06 1.549
30 regular 5 4 404 55 1 0.463 faster 0 2.081671e+06 2.081672e+06 1.501
30 regular 5 5 405 54 1 0.317 faster 0 2.081673e+06 2.081675e+06 1.732
30 regular 5 6 406 67 1 0.166 slower 0 2.081676e+06 2.081677e+06 1.632
30 regular 5 7 407 68 1 0.188 slower 0 2.081678e+06 2.081680e+06 1.793
30 regular 5 8 408 69 1 0.208 faster 1 2.081681e+06 2.081683e+06 1.970
30 regular 5 9 409 51 1 0.509 slower 1 2.081684e+06 2.081686e+06 1.625
30 regular 5 10 410 68 1 0.445 slower 0 2.081687e+06 2.081689e+06 1.703
30 regular 5 11 411 69 1 0.182 faster 1 2.081689e+06 2.081691e+06 1.679
30 regular 5 12 412 69 1 0.533 faster 1 2.081693e+06 2.081695e+06 2.136
30 regular 5 13 413 52 1 0.256 slower 1 2.081696e+06 2.081697e+06 1.888
30 regular 5 14 414 68 1 0.271 slower 0 2.081698e+06 2.081700e+06 1.935
30 regular 5 15 415 69 1 0.596 faster 1 2.081702e+06 2.081704e+06 1.787
30 regular 5 16 416 68 1 0.143 faster 1 2.081705e+06 2.081706e+06 1.754
30 regular 5 17 417 52 1 0.209 faster 0 2.081707e+06 2.081709e+06 1.931
30 regular 5 18 418 69 1 0.599 slower 0 2.081711e+06 2.081713e+06 1.841
30 regular 5 19 419 50 1 0.316 slower 1 2.081714e+06 2.081716e+06 2.056
30 regular 5 20 420 51 1 0.220 faster 0 2.081717e+06 2.081719e+06 1.932
30 regular 5 21 421 70 1 0.238 slower 0 2.081720e+06 2.081722e+06 2.407
30 regular 5 22 422 71 1 0.268 faster 1 2.081724e+06 2.081726e+06 1.813
30 regular 5 23 423 49 1 0.341 slower 1 2.081727e+06 2.081729e+06 1.827
30 regular 5 24 424 70 1 0.309 faster 1 2.081730e+06 2.081731e+06 1.742
30 regular 5 25 425 70 1 0.119 slower 0 2.081732e+06 2.081734e+06 1.673
30 regular 5 26 426 49 1 0.290 faster 0 2.081735e+06 2.081737e+06 1.730
30 regular 5 27 427 48 1 0.259 faster 0 2.081738e+06 2.081740e+06 1.972
30 regular 5 28 428 47 1 0.241 slower 1 2.081741e+06 2.081743e+06 1.774
30 regular 5 29 429 48 1 0.543 faster 0 2.081745e+06 2.081747e+06 1.789
30 regular 5 30 430 73 1 0.227 slower 0 2.081747e+06 2.081750e+06 2.158
30 regular 5 31 431 46 1 0.259 slower 1 2.081751e+06 2.081753e+06 1.849
30 regular 5 32 432 46 1 0.103 slower 1 2.081753e+06 2.081755e+06 1.980
30 regular 5 33 433 73 1 0.300 faster 1 2.081756e+06 2.081758e+06 1.675
30 regular 5 34 434 73 1 0.541 faster 1 2.081760e+06 2.081761e+06 1.652
30 regular 5 35 435 72 1 0.526 faster 1 2.081763e+06 2.081765e+06 2.035
30 regular 5 36 436 48 1 0.225 slower 1 2.081766e+06 2.081767e+06 1.750
30 regular 5 37 437 71 1 0.333 slower 0 2.081769e+06 2.081771e+06 1.938
30 regular 5 38 438 48 1 0.479 faster 0 2.081772e+06 2.081774e+06 2.056
30 regular 5 39 439 47 1 0.414 faster 0 2.081776e+06 2.081777e+06 1.851
30 regular 5 40 440 74 1 0.305 faster 1 2.081779e+06 2.081781e+06 2.017
30 regular 5 41 441 46 1 0.304 faster 0 2.081782e+06 2.081784e+06 1.946
30 regular 5 42 442 75 1 0.338 faster 1 2.081785e+06 2.081787e+06 1.967
30 regular 5 43 443 74 1 0.435 faster 1 2.081788e+06 2.081790e+06 1.711
30 regular 5 44 444 74 1 0.419 faster 1 2.081791e+06 2.081794e+06 2.619
30 regular 5 45 445 47 1 0.599 slower 1 2.081795e+06 2.081797e+06 1.746
30 regular 5 46 446 47 1 0.190 faster 0 2.081798e+06 2.081800e+06 2.208
30 regular 5 47 447 74 1 0.188 faster 1 2.081801e+06 2.081803e+06 1.950
30 regular 5 48 448 47 1 0.526 slower 1 2.081805e+06 2.081807e+06 1.976
30 regular 5 49 449 47 1 0.330 slower 1 2.081808e+06 2.081810e+06 1.944
30 regular 5 50 450 48 1 0.260 slower 1 2.081811e+06 2.081813e+06 2.017
30 regular 5 51 451 48 1 0.138 faster 0 2.081814e+06 2.081816e+06 2.148
30 regular 5 52 452 73 1 0.368 faster 1 2.081818e+06 2.081820e+06 1.955
30 regular 5 53 453 72 1 0.159 faster 1 2.081821e+06 2.081823e+06 1.862
30 regular 5 54 454 48 1 0.213 faster 0 2.081824e+06 2.081826e+06 2.219
30 regular 5 55 455 73 1 0.328 faster 1 2.081827e+06 2.081830e+06 2.281
30 regular 5 56 456 72 1 0.296 slower 0 2.081831e+06 2.081832e+06 1.810
30 regular 5 57 457 47 1 0.572 slower 1 2.081834e+06 2.081836e+06 2.166
30 regular 5 58 458 73 1 0.594 faster 1 2.081838e+06 2.081840e+06 1.755
30 regular 5 59 459 48 1 0.166 none 2 2.081841e+06 2.081845e+06 4.000
30 regular 5 60 460 72 1 0.325 slower 0 2.081846e+06 2.081848e+06 1.917
30 regular 5 61 461 73 1 0.324 faster 1 2.081849e+06 2.081851e+06 1.836
30 regular 5 62 462 73 1 0.187 faster 1 2.081852e+06 2.081854e+06 1.898
30 regular 5 63 463 72 1 0.225 slower 0 2.081855e+06 2.081857e+06 2.036
30 regular 5 64 464 47 1 0.214 slower 1 2.081858e+06 2.081860e+06 1.698
30 regular 5 65 465 73 1 0.524 faster 1 2.081861e+06 2.081862e+06 1.662
30 regular 5 66 466 72 1 0.103 slower 0 2.081864e+06 2.081865e+06 1.652
30 regular 5 67 467 47 1 0.412 faster 0 2.081867e+06 2.081868e+06 1.767
30 regular 5 68 468 46 1 0.466 faster 0 2.081870e+06 2.081872e+06 1.965
30 regular 5 69 469 75 1 0.324 faster 1 2.081873e+06 2.081875e+06 1.724
30 regular 5 70 470 45 1 0.196 slower 1 2.081876e+06 2.081878e+06 1.741
30 regular 5 71 471 74 1 0.191 faster 1 2.081879e+06 2.081881e+06 1.700
30 regular 5 72 472 74 1 0.380 faster 1 2.081882e+06 2.081884e+06 1.888
30 regular 5 73 473 73 1 0.507 faster 1 2.081886e+06 2.081887e+06 1.623
30 regular 5 74 474 47 1 0.320 faster 0 2.081889e+06 2.081890e+06 1.803
30 regular 5 75 475 74 1 0.512 slower 0 2.081892e+06 2.081894e+06 1.703
30 regular 5 76 476 45 1 0.297 slower 1 2.081895e+06 2.081897e+06 2.119
30 regular 5 77 477 46 1 0.447 faster 0 2.081898e+06 2.081901e+06 2.350
30 regular 5 78 478 45 1 0.528 slower 1 2.081902e+06 2.081904e+06 1.772
30 regular 5 79 479 75 1 0.230 slower 0 2.081905e+06 2.081907e+06 1.720
30 regular 5 80 480 44 1 0.219 slower 1 2.081908e+06 2.081910e+06 1.693
30 regular 5 81 481 45 1 0.549 slower 1 2.081911e+06 2.081913e+06 2.039
30 regular 5 82 482 45 1 0.447 slower 1 2.081915e+06 2.081917e+06 2.114
30 regular 5 83 483 74 1 0.270 faster 1 2.081918e+06 2.081921e+06 2.287
30 regular 5 84 484 46 1 0.578 slower 1 2.081922e+06 2.081924e+06 2.109
30 regular 5 85 485 73 1 0.238 faster 1 2.081926e+06 2.081927e+06 1.753
30 regular 5 86 486 47 1 0.448 faster 0 2.081929e+06 2.081931e+06 2.077
30 regular 5 87 487 46 1 0.536 faster 0 2.081932e+06 2.081935e+06 2.464
30 regular 5 88 488 45 1 0.372 slower 1 2.081936e+06 2.081938e+06 1.727
30 regular 5 89 489 74 1 0.382 faster 1 2.081939e+06 2.081941e+06 1.731
30 regular 5 90 490 74 1 0.144 slower 0 2.081942e+06 2.081944e+06 1.991
30 regular 5 91 491 45 1 0.596 slower 1 2.081946e+06 2.081948e+06 1.884
30 regular 5 92 492 46 1 0.172 slower 1 2.081949e+06 2.081951e+06 1.844
30 regular 5 93 493 46 1 0.571 faster 0 2.081952e+06 2.081954e+06 2.012
30 regular 5 94 494 45 1 0.288 slower 1 2.081956e+06 2.081958e+06 2.321
30 regular 5 95 495 74 1 0.314 slower 0 2.081959e+06 2.081961e+06 2.047
30 regular 5 96 496 75 1 0.254 faster 1 2.081963e+06 2.081964e+06 1.603
30 regular 5 97 497 75 1 0.516 faster 1 2.081966e+06 2.081968e+06 2.019
30 regular 5 98 498 46 1 0.308 faster 0 2.081969e+06 2.081971e+06 1.783
30 regular 5 99 499 45 1 0.177 slower 1 2.081972e+06 2.081974e+06 1.775
30 regular 5 100 500 45 1 0.460 slower 1 2.081976e+06 2.081977e+06 1.716
30 irregular 6 1 501 62 2.500000e+00 0.217 faster 1 2.163579e+06 2.163582e+06 3.256
30 irregular 6 2 502 58 3 0.198 faster 0 2.163583e+06 2.163587e+06 3.798
30 irregular 6 3 503 56 2.500000e+00 0.575 slower 1 2.163589e+06 2.163592e+06 3.348
30 irregular 6 4 504 58 2 0.207 faster 0 2.163594e+06 2.163596e+06 2.603
30 irregular 6 5 505 56 1.500000e+00 0.106 faster 0 2.163597e+06 2.163599e+06 2.396
30 irregular 6 6 506 66 2 0.146 faster 1 2.163600e+06 2.163603e+06 2.622
30 irregular 6 7 507 54 2.500000e+00 0.584 slower 1 2.163604e+06 2.163608e+06 3.176
30 irregular 6 8 508 64 1.500000e+00 0.316 faster 1 2.163609e+06 2.163611e+06 2.185
30 irregular 6 9 509 56 1.500000e+00 0.391 faster 0 2.163612e+06 2.163615e+06 2.600
30 irregular 6 10 510 65 3 0.119 faster 1 2.163616e+06 2.163619e+06 3.789
30 irregular 6 11 511 64 1 0.596 faster 1 2.163621e+06 2.163623e+06 1.984
30 irregular 6 12 512 56 2 0.441 slower 1 2.163625e+06 2.163627e+06 2.806
30 irregular 6 13 513 63 3 0.161 slower 0 2.163629e+06 2.163633e+06 4.049
30 irregular 6 14 514 56 1.500000e+00 0.515 slower 1 2.163634e+06 2.163636e+06 2.209
30 irregular 6 15 515 56 2.500000e+00 0.300 slower 1 2.163638e+06 2.163641e+06 3.381
30 irregular 6 16 516 63 2.500000e+00 0.595 slower 0 2.163643e+06 2.163647e+06 3.907
30 irregular 6 17 517 64 2.500000e+00 0.566 faster 1 2.163648e+06 2.163652e+06 3.362
30 irregular 6 18 518 56 2.500000e+00 0.344 slower 1 2.163653e+06 2.163657e+06 3.375
30 irregular 6 19 519 63 2.500000e+00 0.585 slower 0 2.163658e+06 2.163662e+06 3.637
30 irregular 6 20 520 64 2.500000e+00 0.267 slower 0 2.163663e+06 2.163666e+06 3.323
30 irregular 6 21 521 65 2 0.241 faster 1 2.163668e+06 2.163671e+06 3.468
30 irregular 6 22 522 55 2 0.505 slower 1 2.163672e+06 2.163675e+06 2.638
30 irregular 6 23 523 56 3 0.219 slower 1 2.163676e+06 2.163679e+06 3.815
30 irregular 6 24 524 64 2.500000e+00 0.297 slower 0 2.163681e+06 2.163684e+06 3.558
30 irregular 6 25 525 65 1 0.139 faster 1 2.163686e+06 2.163687e+06 1.793
30 irregular 6 26 526 56 2.500000e+00 0.186 slower 1 2.163688e+06 2.163691e+06 3.188
30 irregular 6 27 527 64 2 0.118 faster 1 2.163693e+06 2.163695e+06 2.767
30 irregular 6 28 528 63 1.500000e+00 0.326 faster 1 2.163696e+06 2.163699e+06 2.270
30 irregular 6 29 529 63 3 0.336 faster 1 2.163700e+06 2.163704e+06 3.881
30 irregular 6 30 530 62 3 0.124 slower 0 2.163705e+06 2.163708e+06 3.741
30 irregular 6 31 531 57 2.500000e+00 0.161 slower 1 2.163709e+06 2.163713e+06 3.267
30 irregular 6 32 532 63 1 0.287 faster 1 2.163714e+06 2.163716e+06 2.518
30 irregular 6 33 533 58 2.500000e+00 0.584 faster 0 2.163717e+06 2.163721e+06 3.509
30 irregular 6 34 534 63 1 0.401 slower 0 2.163722e+06 2.163724e+06 2.247
30 irregular 6 35 535 56 1 0.484 slower 1 2.163725e+06 2.163727e+06 2.135
30 irregular 6 36 536 56 1.500000e+00 0.161 slower 1 2.163728e+06 2.163731e+06 2.378
30 irregular 6 37 537 63 3 0.131 faster 1 2.163732e+06 2.163735e+06 3.654
30 irregular 6 38 538 63 1 0.580 slower 0 2.163737e+06 2.163739e+06 2.208
30 irregular 6 39 539 64 2.500000e+00 0.381 faster 1 2.163740e+06 2.163744e+06 3.406
30 irregular 6 40 540 63 3 0.311 faster 1 2.163745e+06 2.163749e+06 3.923
30 irregular 6 41 541 57 2.500000e+00 0.146 slower 1 2.163750e+06 2.163754e+06 3.518
30 irregular 6 42 542 62 1.500000e+00 0.525 faster 1 2.163755e+06 2.163758e+06 2.320
30 irregular 6 43 543 58 3 0.239 slower 1 2.163758e+06 2.163762e+06 3.794
30 irregular 6 44 544 61 1.500000e+00 0.576 faster 1 2.163764e+06 2.163766e+06 2.341
30 irregular 6 45 545 61 2 0.117 slower 0 2.163767e+06 2.163771e+06 3.515
30 irregular 6 46 546 58 3 0.533 faster 0 2.163772e+06 2.163777e+06 4.782
30 irregular 6 47 547 63 3 0.517 slower 0 2.163778e+06 2.163782e+06 3.721
30 irregular 6 48 548 56 1 0.263 faster 0 2.163783e+06 2.163785e+06 1.771
30 irregular 6 49 549 55 2.500000e+00 0.209 slower 1 2.163786e+06 2.163789e+06 3.445
30 irregular 6 50 550 56 1.500000e+00 0.526 slower 1 2.163791e+06 2.163793e+06 2.275
30 irregular 6 51 551 64 1 0.318 faster 1 2.163794e+06 2.163796e+06 1.734
30 irregular 6 52 552 57 1.500000e+00 0.217 faster 0 2.163796e+06 2.163799e+06 2.990
30 irregular 6 53 553 56 1 0.389 faster 0 2.163801e+06 2.163802e+06 1.819
30 irregular 6 54 554 55 1.500000e+00 0.292 faster 0 2.163803e+06 2.163806e+06 2.487
30 irregular 6 55 555 54 1 0.600 faster 0 2.163807e+06 2.163809e+06 1.739
30 irregular 6 56 556 67 1.500000e+00 0.227 faster 1 2.163810e+06 2.163812e+06 2.560
30 irregular 6 57 557 67 2 0.439 faster 1 2.163814e+06 2.163817e+06 2.900
30 irregular 6 58 558 54 1 0.358 faster 0 2.163818e+06 2.163820e+06 1.915
30 irregular 6 59 559 67 2 0.573 slower 0 2.163821e+06 2.163824e+06 2.806
30 irregular 6 60 560 52 3 0.202 slower 1 2.163825e+06 2.163829e+06 3.914
30 irregular 6 61 561 52 3 0.450 slower 1 2.163830e+06 2.163834e+06 4.279
30 irregular 6 62 562 53 2 0.326 slower 1 2.163835e+06 2.163838e+06 2.828
30 irregular 6 63 563 53 3 0.368 slower 1 2.163839e+06 2.163843e+06 3.913
30 irregular 6 64 564 66 1 0.258 faster 1 2.163844e+06 2.163846e+06 2.158
30 irregular 6 65 565 54 1 0.204 faster 0 2.163847e+06 2.163849e+06 1.920
30 irregular 6 66 566 67 2.500000e+00 0.209 faster 1 2.163851e+06 2.163854e+06 3.640
30 irregular 6 67 567 66 1 0.471 faster 1 2.163855e+06 2.163857e+06 1.749
30 irregular 6 68 568 54 2 0.150 faster 0 2.163858e+06 2.163861e+06 2.819
30 irregular 6 69 569 53 2.500000e+00 0.262 slower 1 2.163862e+06 2.163865e+06 3.698
30 irregular 6 70 570 66 2 0.321 faster 1 2.163867e+06 2.163870e+06 2.776
30 irregular 6 71 571 66 1 0.271 faster 1 2.163871e+06 2.163873e+06 2.239
30 irregular 6 72 572 55 1.500000e+00 0.442 slower 1 2.163874e+06 2.163876e+06 2.553
30 irregular 6 73 573 65 3 0.413 faster 1 2.163878e+06 2.163882e+06 4.126
30 irregular 6 74 574 56 1.500000e+00 0.474 slower 1 2.163884e+06 2.163886e+06 2.588
30 irregular 6 75 575 64 1.500000e+00 0.553 slower 0 2.163887e+06 2.163890e+06 2.456
30 irregular 6 76 576 55 2 0.586 slower 1 2.163891e+06 2.163894e+06 2.958
30 irregular 6 77 577 56 2 0.373 slower 1 2.163896e+06 2.163898e+06 2.813
30 irregular 6 78 578 56 1 0.384 slower 1 2.163900e+06 2.163902e+06 2.118
30 irregular 6 79 579 57 3 0.139 slower 1 2.163903e+06 2.163906e+06 3.762
30 irregular 6 80 580 57 1 0.373 faster 0 2.163908e+06 2.163910e+06 1.744
30 irregular 6 81 581 64 2.500000e+00 0.568 slower 0 2.163912e+06 2.163915e+06 3.500
30 irregular 6 82 582 55 3 0.338 slower 1 2.163916e+06 2.163920e+06 4.013
30 irregular 6 83 583 64 1 0.245 faster 1 2.163921e+06 2.163924e+06 2.261
30 irregular 6 84 584 64 1.500000e+00 0.143 faster 1 2.163925e+06 2.163927e+06 2.428
30 irregular 6 85 585 57 2 0.477 faster 0 2.163929e+06 2.163932e+06 2.906
30 irregular 6 86 586 64 1.500000e+00 0.268 slower 0 2.163933e+06 2.163935e+06 2.293
30 irregular 6 87 587 65 2.500000e+00 0.436 faster 1 2.163937e+06 2.163940e+06 3.410
30 irregular 6 88 588 55 1 0.272 slower 1 2.163941e+06 2.163943e+06 2.106
30 irregular 6 89 589 64 3 0.172 faster 1 2.163944e+06 2.163948e+06 3.702
30 irregular 6 90 590 64 2 0.251 faster 1 2.163949e+06 2.163952e+06 2.726
30 irregular 6 91 591 63 2 0.108 faster 1 2.163953e+06 2.163955e+06 2.745
30 irregular 6 92 592 63 3 0.335 slower 0 2.163957e+06 2.163961e+06 3.843
30 irregular 6 93 593 64 2 0.296 faster 1 2.163962e+06 2.163965e+06 2.729
30 irregular 6 94 594 63 1.500000e+00 0.402 faster 1 2.163966e+06 2.163968e+06 2.355
30 irregular 6 95 595 57 2 0.363 faster 0 2.163970e+06 2.163973e+06 3.147
30 irregular 6 96 596 56 3 0.302 slower 1 2.163974e+06 2.163978e+06 4.230
30 irregular 6 97 597 57 2 0.119 faster 0 2.163980e+06 2.163983e+06 3.065
30 irregular 6 98 598 56 1.500000e+00 0.156 faster 0 2.163984e+06 2.163986e+06 2.345
30 irregular 6 99 599 55 1 0.292 faster 0 2.163987e+06 2.163989e+06 2.119
30 irregular 6 100 600 66 1.500000e+00 0.274 slower 0 2.163991e+06 2.163993e+06 2.215
30 regular 7 1 601 53 2 0.496 slower 1 2.164007e+06 2.164010e+06 2.841
30 regular 7 2 602 67 2 0.321 faster 1 2.164011e+06 2.164014e+06 2.738
30 regular 7 3 603 54 2 0.246 slower 1 2.164015e+06 2.164017e+06 2.654
30 regular 7 4 604 66 2 0.512 faster 1 2.164018e+06 2.164021e+06 2.652
30 regular 7 5 605 65 2 0.448 faster 1 2.164022e+06 2.164025e+06 2.671
30 regular 7 6 606 65 2 0.126 faster 1 2.164026e+06 2.164029e+06 2.633
30 regular 7 7 607 64 2 0.533 faster 1 2.164030e+06 2.164033e+06 3.053
30 regular 7 8 608 64 2 0.466 faster 1 2.164035e+06 2.164038e+06 3.062
30 regular 7 9 609 63 2 0.480 faster 1 2.164039e+06 2.164042e+06 2.919
30 regular 7 10 610 57 2 0.369 slower 1 2.164044e+06 2.164047e+06 2.717
30 regular 7 11 611 62 2 0.426 faster 1 2.164048e+06 2.164051e+06 2.854
30 regular 7 12 612 58 2 0.496 slower 1 2.164052e+06 2.164055e+06 2.720
30 regular 7 13 613 61 2 0.562 slower 0 2.164057e+06 2.164060e+06 3.070
30 regular 7 14 614 58 2 0.553 slower 1 2.164061e+06 2.164064e+06 3.087
30 regular 7 15 615 58 2 0.514 slower 1 2.164065e+06 2.164069e+06 3.059
30 regular 7 16 616 59 2 0.589 faster 0 2.164070e+06 2.164073e+06 3.174
30 regular 7 17 617 62 2 0.447 slower 0 2.164074e+06 2.164078e+06 4.123
30 regular 7 18 618 63 2 0.582 faster 1 2.164080e+06 2.164083e+06 3.078
30 regular 7 19 619 63 2 0.459 slower 0 2.164084e+06 2.164087e+06 3.042
30 regular 7 20 620 64 2 0.501 slower 0 2.164089e+06 2.164092e+06 3.107
30 regular 7 21 621 55 2 0.416 slower 1 2.164093e+06 2.164096e+06 2.773
30 regular 7 22 622 56 2 0.273 faster 0 2.164097e+06 2.164100e+06 2.731
30 regular 7 23 623 65 2 0.346 faster 1 2.164101e+06 2.164103e+06 2.643
30 regular 7 24 624 65 2 0.180 faster 1 2.164105e+06 2.164107e+06 2.674
30 regular 7 25 625 64 2 0.329 faster 1 2.164108e+06 2.164111e+06 3.121
30 regular 7 26 626 64 2 0.187 faster 1 2.164113e+06 2.164115e+06 2.721
30 regular 7 27 627 63 2 0.287 faster 1 2.164117e+06 2.164120e+06 2.989
30 regular 7 28 628 63 2 0.293 faster 1 2.164121e+06 2.164124e+06 3.682
30 regular 7 29 629 58 2 0.406 slower 1 2.164125e+06 2.164128e+06 2.816
30 regular 7 30 630 58 2 0.102 faster 0 2.164129e+06 2.164132e+06 2.972
30 regular 7 31 631 57 2 0.382 slower 1 2.164133e+06 2.164136e+06 2.721
30 regular 7 32 632 58 2 0.276 slower 1 2.164137e+06 2.164140e+06 3.048
30 regular 7 33 633 58 2 0.446 faster 0 2.164141e+06 2.164144e+06 2.804
30 regular 7 34 634 57 2 0.235 slower 1 2.164144e+06 2.164147e+06 2.748
30 regular 7 35 635 58 2 0.238 slower 1 2.164148e+06 2.164151e+06 2.762
30 regular 7 36 636 62 2 0.383 faster 1 2.164152e+06 2.164155e+06 2.844
30 regular 7 37 637 59 2 0.521 faster 0 2.164156e+06 2.164159e+06 2.911
30 regular 7 38 638 58 2 0.487 faster 0 2.164160e+06 2.164163e+06 2.717
30 regular 7 39 639 63 2 0.364 faster 1 2.164165e+06 2.164167e+06 2.696
30 regular 7 40 640 63 2 0.498 faster 1 2.164169e+06 2.164171e+06 2.740
30 regular 7 41 641 58 2 0.521 slower 1 2.164173e+06 2.164175e+06 2.811
30 regular 7 42 642 62 2 0.598 faster 1 2.164177e+06 2.164180e+06 2.810
30 regular 7 43 643 61 2 0.368 faster 1 2.164181e+06 2.164184e+06 3.154
30 regular 7 44 644 59 2 0.418 slower 1 2.164185e+06 2.164188e+06 2.770
30 regular 7 45 645 59 2 0.541 slower 1 2.164190e+06 2.164193e+06 2.786
30 regular 7 46 646 61 2 0.118 faster 1 2.164193e+06 2.164196e+06 2.777
30 regular 7 47 647 59 2 0.438 faster 0 2.164197e+06 2.164200e+06 2.701
30 regular 7 48 648 62 2 0.129 faster 1 2.164201e+06 2.164204e+06 2.766
30 regular 7 49 649 62 2 0.143 faster 1 2.164205e+06 2.164208e+06 2.737
30 regular 7 50 650 59 2 0.177 faster 0 2.164208e+06 2.164211e+06 2.984
30 regular 7 51 651 58 2 0.495 slower 1 2.164213e+06 2.164215e+06 2.883
30 regular 7 52 652 62 2 0.575 faster 1 2.164217e+06 2.164220e+06 2.731
30 regular 7 53 653 61 2 0.349 faster 1 2.164221e+06 2.164224e+06 2.926
30 regular 7 54 654 59 2 0.230 slower 1 2.164225e+06 2.164228e+06 2.717
30 regular 7 55 655 59 2 0.596 faster 0 2.164229e+06 2.164232e+06 3.039
30 regular 7 56 656 58 2 0.102 faster 0 2.164233e+06 2.164236e+06 3.062
30 regular 7 57 657 57 2 0.340 slower 1 2.164237e+06 2.164240e+06 2.749
30 regular 7 58 658 63 2 0.436 faster 1 2.164241e+06 2.164244e+06 2.718
30 regular 7 59 659 58 2 0.296 slower 1 2.164245e+06 2.164248e+06 2.805
30 regular 7 60 660 62 2 0.210 faster 1 2.164249e+06 2.164252e+06 2.660
30 regular 7 61 661 59 2 0.418 faster 0 2.164253e+06 2.164256e+06 3.090
30 regular 7 62 662 58 2 0.430 slower 1 2.164257e+06 2.164260e+06 2.809
30 regular 7 63 663 62 2 0.408 slower 0 2.164261e+06 2.164264e+06 2.984
30 regular 7 64 664 63 2 0.132 faster 1 2.164265e+06 2.164267e+06 2.715
30 regular 7 65 665 62 2 0.496 faster 1 2.164269e+06 2.164272e+06 3.475
30 regular 7 66 666 62 2 0.389 slower 0 2.164273e+06 2.164276e+06 3.060
30 regular 7 67 667 57 2 0.168 slower 1 2.164278e+06 2.164280e+06 2.718
30 regular 7 68 668 62 2 0.597 slower 0 2.164282e+06 2.164285e+06 2.946
30 regular 7 69 669 57 2 0.190 faster 0 2.164286e+06 2.164289e+06 2.975
30 regular 7 70 670 56 2 0.524 slower 1 2.164290e+06 2.164293e+06 2.718
30 regular 7 71 671 56 2 0.485 slower 1 2.164294e+06 2.164297e+06 2.742
30 regular 7 72 672 63 2 0.248 faster 1 2.164298e+06 2.164300e+06 2.661
30 regular 7 73 673 57 2 0.220 slower 1 2.164301e+06 2.164304e+06 2.664
30 regular 7 74 674 58 2 0.113 slower 1 2.164305e+06 2.164308e+06 2.904
30 regular 7 75 675 62 2 0.123 faster 1 2.164309e+06 2.164312e+06 2.636
30 regular 7 76 676 59 2 0.501 slower 1 2.164313e+06 2.164316e+06 3.028
30 regular 7 77 677 61 2 0.217 faster 1 2.164318e+06 2.164320e+06 2.740
30 regular 7 78 678 61 2 0.238 faster 1 2.164322e+06 2.164325e+06 3.466
30 regular 7 79 679 59 2 0.378 faster 0 2.164326e+06 2.164329e+06 2.657
30 regular 7 80 680 58 2 0.130 slower 1 2.164330e+06 2.164333e+06 2.870
30 regular 7 81 681 59 2 0.196 faster 0 2.164334e+06 2.164337e+06 2.838
30 regular 7 82 682 62 2 0.519 faster 1 2.164338e+06 2.164341e+06 3.083
30 regular 7 83 683 58 2 0.346 faster 0 2.164342e+06 2.164345e+06 2.672
30 regular 7 84 684 57 2 0.579 faster 0 2.164347e+06 2.164349e+06 2.797
30 regular 7 85 685 64 2 0.111 faster 1 2.164350e+06 2.164353e+06 2.594
30 regular 7 86 686 63 2 0.584 faster 1 2.164355e+06 2.164357e+06 2.707
30 regular 7 87 687 57 2 0.379 slower 1 2.164359e+06 2.164362e+06 2.794
30 regular 7 88 688 58 2 0.123 slower 1 2.164363e+06 2.164366e+06 3.149
30 regular 7 89 689 58 2 0.397 faster 0 2.164367e+06 2.164370e+06 2.890
30 regular 7 90 690 63 2 0.527 slower 0 2.164372e+06 2.164375e+06 3.326
30 regular 7 91 691 64 2 0.179 faster 1 2.164376e+06 2.164379e+06 2.659
30 regular 7 92 692 63 2 0.335 slower 0 2.164380e+06 2.164384e+06 3.577
30 regular 7 93 693 64 2 0.274 faster 1 2.164385e+06 2.164388e+06 2.696
30 regular 7 94 694 56 2 0.231 slower 1 2.164389e+06 2.164392e+06 2.758
30 regular 7 95 695 57 2 0.420 faster 0 2.164393e+06 2.164396e+06 3.076
30 regular 7 96 696 56 2 0.341 slower 1 2.164397e+06 2.164400e+06 2.692
30 regular 7 97 697 64 2 0.507 slower 0 2.164401e+06 2.164404e+06 2.819
30 regular 7 98 698 55 2 0.148 slower 1 2.164405e+06 2.164409e+06 3.109
30 regular 7 99 699 64 2 0.258 faster 1 2.164409e+06 2.164412e+06 2.955
30 regular 7 100 700 64 2 0.107 slower 0 2.164414e+06 2.164417e+06 3.091
30 irregular 8 1 701 55 3 0.276 slower 1 2.164441e+06 2.164445e+06 3.996
30 irregular 8 2 702 64 1 0.136 slower 0 2.164447e+06 2.164449e+06 1.933
30 irregular 8 3 703 55 3 0.450 slower 1 2.164450e+06 2.164454e+06 4.147
30 irregular 8 4 704 65 3 0.290 slower 0 2.164455e+06 2.164459e+06 3.763
30 irregular 8 5 705 66 2.500000e+00 0.111 faster 1 2.164460e+06 2.164463e+06 3.841
30 irregular 8 6 706 65 3 0.532 slower 0 2.164465e+06 2.164468e+06 3.667
30 irregular 8 7 707 54 1.500000e+00 0.303 faster 0 2.164470e+06 2.164472e+06 2.568
30 irregular 8 8 708 53 2 0.393 slower 1 2.164473e+06 2.164476e+06 2.736
30 irregular 8 9 709 67 2.500000e+00 0.117 faster 1 2.164477e+06 2.164480e+06 3.278
30 irregular 8 10 710 54 3 0.167 faster 0 2.164481e+06 2.164485e+06 4.167
30 irregular 8 11 711 67 2.500000e+00 0.435 slower 0 2.164487e+06 2.164490e+06 3.281
30 irregular 8 12 712 52 1 0.429 faster 0 2.164491e+06 2.164493e+06 1.807
30 irregular 8 13 713 51 2 0.261 slower 1 2.164495e+06 2.164497e+06 2.767
30 irregular 8 14 714 69 2 0.278 slower 0 2.164499e+06 2.164502e+06 2.971
30 irregular 8 15 715 50 1.500000e+00 0.185 faster 0 2.164503e+06 2.164506e+06 2.819
30 irregular 8 16 716 71 3 0.270 faster 1 2.164507e+06 2.164511e+06 4.135
30 irregular 8 17 717 70 3 0.309 slower 0 2.164512e+06 2.164516e+06 3.892
30 irregular 8 18 718 71 2.500000e+00 0.470 faster 1 2.164518e+06 2.164521e+06 3.556
30 irregular 8 19 719 49 1.500000e+00 0.129 faster 0 2.164522e+06 2.164525e+06 2.894
30 irregular 8 20 720 72 1 0.111 faster 1 2.164526e+06 2.164528e+06 2.076
30 irregular 8 21 721 49 2 0.379 slower 1 2.164529e+06 2.164532e+06 2.850
30 irregular 8 22 722 71 2 0.547 slower 0 2.164533e+06 2.164536e+06 2.816
30 irregular 8 23 723 48 2.500000e+00 0.451 slower 1 2.164538e+06 2.164541e+06 3.245
30 irregular 8 24 724 71 2.500000e+00 0.175 slower 0 2.164542e+06 2.164546e+06 3.865
30 irregular 8 25 725 72 1.500000e+00 0.497 slower 0 2.164547e+06 2.164549e+06 2.225
30 irregular 8 26 726 47 2 0.141 faster 0 2.164551e+06 2.164553e+06 2.685
30 irregular 8 27 727 74 1 0.429 slower 0 2.164554e+06 2.164557e+06 2.164
30 irregular 8 28 728 75 2 0.147 slower 0 2.164558e+06 2.164560e+06 2.727
30 irregular 8 29 729 76 1 0.364 faster 1 2.164562e+06 2.164564e+06 1.770
30 irregular 8 30 730 76 2 0.241 slower 0 2.164565e+06 2.164567e+06 2.697
30 irregular 8 31 731 43 2 0.190 slower 1 2.164568e+06 2.164571e+06 3.020
30 irregular 8 32 732 44 1 0.575 slower 1 2.164573e+06 2.164575e+06 2.179
30 irregular 8 33 733 44 2.500000e+00 0.113 faster 0 2.164576e+06 2.164580e+06 3.790
30 irregular 8 34 734 43 1 0.204 slower 1 2.164582e+06 2.164584e+06 2.126
30 irregular 8 35 735 76 1.500000e+00 0.286 faster 1 2.164585e+06 2.164588e+06 3.009
30 irregular 8 36 736 44 3 0.210 slower 1 2.164589e+06 2.164593e+06 3.920
30 irregular 8 37 737 45 1 0.495 slower 1 2.164595e+06 2.164597e+06 2.155
30 irregular 8 38 738 45 1.500000e+00 0.228 slower 1 2.164598e+06 2.164600e+06 2.316
30 irregular 8 39 739 74 1.500000e+00 0.512 faster 1 2.164602e+06 2.164604e+06 2.297
30 irregular 8 40 740 74 3 0.260 slower 0 2.164605e+06 2.164609e+06 3.938
30 irregular 8 41 741 75 1.500000e+00 0.393 slower 0 2.164611e+06 2.164613e+06 2.429
30 irregular 8 42 742 76 1.500000e+00 0.547 faster 1 2.164614e+06 2.164617e+06 3.016
30 irregular 8 43 743 75 2 0.504 slower 0 2.164619e+06 2.164622e+06 2.737
30 irregular 8 44 744 76 2.500000e+00 0.389 slower 0 2.164623e+06 2.164626e+06 3.229
30 irregular 8 45 745 43 1.500000e+00 0.500 slower 1 2.164628e+06 2.164630e+06 2.218
30 irregular 8 46 746 43 3 0.463 slower 1 2.164632e+06 2.164635e+06 3.788
30 irregular 8 47 747 44 2.500000e+00 0.581 slower 1 2.164637e+06 2.164640e+06 3.287
30 irregular 8 48 748 76 1.500000e+00 0.593 slower 0 2.164642e+06 2.164645e+06 2.594
30 irregular 8 49 749 43 1 0.318 faster 0 2.164646e+06 2.164648e+06 2.179
30 irregular 8 50 750 78 2.500000e+00 0.233 slower 0 2.164649e+06 2.164653e+06 3.725
30 irregular 8 51 751 41 1.500000e+00 0.324 slower 1 2.164655e+06 2.164657e+06 2.526
30 irregular 8 52 752 78 3 0.545 slower 0 2.164659e+06 2.164663e+06 4.174
30 irregular 8 53 753 41 1 0.228 slower 1 2.164664e+06 2.164666e+06 1.943
30 irregular 8 54 754 79 3 0.211 faster 1 2.164668e+06 2.164671e+06 3.909
30 irregular 8 55 755 42 1.500000e+00 0.279 faster 0 2.164673e+06 2.164676e+06 2.735
30 irregular 8 56 756 41 2.500000e+00 0.142 slower 1 2.164677e+06 2.164680e+06 3.250
30 irregular 8 57 757 41 3 0.528 slower 1 2.164682e+06 2.164686e+06 4.028
30 irregular 8 58 758 42 1.500000e+00 0.413 slower 1 2.164687e+06 2.164690e+06 2.686
30 irregular 8 59 759 78 2 0.517 faster 1 2.164692e+06 2.164695e+06 3.504
30 irregular 8 60 760 77 2.500000e+00 0.404 slower 0 2.164697e+06 2.164700e+06 3.464
30 irregular 8 61 761 78 3 0.325 faster 1 2.164702e+06 2.164706e+06 4.061
30 irregular 8 62 762 42 1.500000e+00 0.346 slower 1 2.164707e+06 2.164709e+06 2.343
30 irregular 8 63 763 43 2.500000e+00 0.397 slower 1 2.164711e+06 2.164714e+06 3.461
30 irregular 8 64 764 43 1 0.344 faster 0 2.164715e+06 2.164718e+06 2.087
30 irregular 8 65 765 42 1 0.138 slower 1 2.164718e+06 2.164720e+06 1.792
30 irregular 8 66 766 43 2 0.449 slower 1 2.164722e+06 2.164725e+06 2.909
30 irregular 8 67 767 77 3 0.111 faster 1 2.164726e+06 2.164730e+06 3.925
30 irregular 8 68 768 44 2.500000e+00 0.288 slower 1 2.164731e+06 2.164735e+06 3.331
30 irregular 8 69 769 44 1.500000e+00 0.325 slower 1 2.164736e+06 2.164739e+06 2.296
30 irregular 8 70 770 75 1.500000e+00 0.584 faster 1 2.164740e+06 2.164742e+06 2.198
30 irregular 8 71 771 45 1 0.354 slower 1 2.164744e+06 2.164746e+06 2.128
30 irregular 8 72 772 46 2.500000e+00 0.192 slower 1 2.164747e+06 2.164751e+06 3.509
30 irregular 8 73 773 74 2 0.481 faster 1 2.164752e+06 2.164755e+06 2.680
30 irregular 8 74 774 73 1 0.425 slower 0 2.164757e+06 2.164759e+06 2.889
30 irregular 8 75 775 46 3 0.204 slower 1 2.164761e+06 2.164765e+06 3.936
30 irregular 8 76 776 74 1 0.123 faster 1 2.164766e+06 2.164768e+06 1.801
30 irregular 8 77 777 73 2.500000e+00 0.218 slower 0 2.164769e+06 2.164773e+06 3.409
30 irregular 8 78 778 74 1 0.545 faster 1 2.164774e+06 2.164776e+06 1.806
30 irregular 8 79 779 74 1.500000e+00 0.389 faster 1 2.164778e+06 2.164780e+06 2.441
30 irregular 8 80 780 47 2.500000e+00 0.312 faster 0 2.164782e+06 2.164786e+06 3.667
30 irregular 8 81 781 46 2.500000e+00 0.493 slower 1 2.164787e+06 2.164790e+06 3.756
30 irregular 8 82 782 46 2.500000e+00 0.266 faster 0 2.164792e+06 2.164796e+06 3.688
30 irregular 8 83 783 75 1.500000e+00 0.136 slower 0 2.164797e+06 2.164800e+06 2.245
30 irregular 8 84 784 44 2 0.582 faster 0 2.164801e+06 2.164804e+06 3.056
30 irregular 8 85 785 77 2 0.236 slower 0 2.164806e+06 2.164808e+06 2.815
30 irregular 8 86 786 78 2 0.364 faster 1 2.164810e+06 2.164813e+06 2.762
30 irregular 8 87 787 77 2 0.142 slower 0 2.164814e+06 2.164817e+06 2.778
30 irregular 8 88 788 42 2 0.288 slower 1 2.164818e+06 2.164821e+06 2.977
30 irregular 8 89 789 42 2 0.239 slower 1 2.164822e+06 2.164825e+06 2.950
30 irregular 8 90 790 43 3 0.244 slower 1 2.164826e+06 2.164830e+06 3.870
30 irregular 8 91 791 43 3 0.251 slower 1 2.164831e+06 2.164835e+06 3.950
30 irregular 8 92 792 76 1 0.105 faster 1 2.164836e+06 2.164838e+06 1.773
30 irregular 8 93 793 76 1 0.396 faster 1 2.164839e+06 2.164841e+06 1.878
30 irregular 8 94 794 75 3 0.486 faster 1 2.164843e+06 2.164847e+06 3.818
30 irregular 8 95 795 75 2.500000e+00 0.290 faster 1 2.164848e+06 2.164851e+06 3.426
30 irregular 8 96 796 74 1.500000e+00 0.201 slower 0 2.164853e+06 2.164855e+06 2.244
30 irregular 8 97 797 75 1 0.327 faster 1 2.164857e+06 2.164858e+06 1.708
30 irregular 8 98 798 45 3 0.314 slower 1 2.164860e+06 2.164864e+06 3.921
30 irregular 8 99 799 46 1 0.367 faster 0 2.164865e+06 2.164867e+06 2.246
30 irregular 8 100 800 45 2 0.314 slower 1 2.164868e+06 2.164871e+06 2.961
30 regular 9 1 801 45 3 0.113 slower 1 2.164928e+06 2.164932e+06 4.071
30 regular 9 2 802 74 3 0.155 slower 0 2.164933e+06 2.164937e+06 3.994
30 regular 9 3 803 45 3 0.226 slower 1 2.164938e+06 2.164942e+06 3.772
30 regular 9 4 804 75 3 0.113 faster 1 2.164943e+06 2.164947e+06 3.714
30 regular 9 5 805 74 3 0.150 faster 1 2.164947e+06 2.164951e+06 3.857
30 regular 9 6 806 46 3 0.257 faster 0 2.164953e+06 2.164957e+06 4.142
30 regular 9 7 807 45 3 0.580 slower 1 2.164959e+06 2.164963e+06 4.545
30 regular 9 8 808 46 3 0.368 faster 0 2.164965e+06 2.164969e+06 3.898
30 regular 9 9 809 45 3 0.401 slower 1 2.164970e+06 2.164974e+06 4.276
30 regular 9 10 810 45 3 0.425 slower 1 2.164976e+06 2.164980e+06 4.144
30 regular 9 11 811 46 3 0.340 slower 1 2.164981e+06 2.164985e+06 4.151
30 regular 9 12 812 74 3 0.532 faster 1 2.164987e+06 2.164991e+06 3.876
30 regular 9 13 813 73 3 0.420 faster 1 2.164992e+06 2.164996e+06 4.195
30 regular 9 14 814 47 3 0.599 faster 0 2.164998e+06 2.165002e+06 4.125
30 regular 9 15 815 46 3 0.499 slower 1 2.165003e+06 2.165009e+06 5.461
30 regular 9 16 816 73 3 0.595 faster 1 2.165010e+06 2.165014e+06 3.826
30 regular 9 17 817 73 3 0.234 faster 1 2.165015e+06 2.165019e+06 3.787
30 regular 9 18 818 48 3 0.166 slower 1 2.165020e+06 2.165024e+06 3.926
30 regular 9 19 819 72 3 0.460 faster 1 2.165025e+06 2.165029e+06 3.802
30 regular 9 20 820 49 3 0.253 faster 0 2.165030e+06 2.165035e+06 4.791
30 regular 9 21 821 48 3 0.387 slower 1 2.165037e+06 2.165041e+06 4.445
30 regular 9 22 822 48 3 0.182 faster 0 2.165042e+06 2.165046e+06 3.847
30 regular 9 23 823 47 3 0.226 slower 1 2.165047e+06 2.165052e+06 4.461
30 regular 9 24 824 48 3 0.266 faster 0 2.165053e+06 2.165057e+06 3.853
30 regular 9 25 825 47 3 0.338 slower 1 2.165058e+06 2.165062e+06 3.800
30 regular 9 26 826 73 3 0.430 slower 0 2.165063e+06 2.165068e+06 4.157
30 regular 9 27 827 46 3 0.308 slower 1 2.165069e+06 2.165073e+06 4.082
30 regular 9 28 828 73 3 0.271 faster 1 2.165074e+06 2.165079e+06 4.416
30 regular 9 29 829 47 3 0.226 slower 1 2.165080e+06 2.165084e+06 3.800
30 regular 9 30 830 48 3 0.102 faster 0 2.165085e+06 2.165089e+06 4.191
30 regular 9 31 831 47 3 0.275 slower 1 2.165091e+06 2.165095e+06 4.110
30 regular 9 32 832 47 3 0.389 faster 0 2.165096e+06 2.165100e+06 4.045
30 regular 9 33 833 74 3 0.434 faster 1 2.165101e+06 2.165105e+06 4.056
30 regular 9 34 834 73 3 0.588 faster 1 2.165107e+06 2.165111e+06 4.084
30 regular 9 35 835 47 3 0.265 faster 0 2.165112e+06 2.165116e+06 4.198
30 regular 9 36 836 46 3 0.571 slower 1 2.165117e+06 2.165121e+06 3.827
30 regular 9 37 837 73 3 0.141 slower 0 2.165122e+06 2.165127e+06 4.328
30 regular 9 38 838 74 3 0.396 faster 1 2.165128e+06 2.165132e+06 4.128
30 regular 9 39 839 74 3 0.214 faster 1 2.165133e+06 2.165138e+06 4.114
30 regular 9 40 840 73 3 0.585 faster 1 2.165139e+06 2.165143e+06 3.801
30 regular 9 41 841 73 3 0.396 faster 1 2.165144e+06 2.165148e+06 3.906
30 regular 9 42 842 72 3 0.358 faster 1 2.165149e+06 2.165153e+06 3.692
30 regular 9 43 843 72 3 0.591 faster 1 2.165154e+06 2.165158e+06 3.695
30 regular 9 44 844 49 3 0.248 slower 1 2.165159e+06 2.165163e+06 3.900
30 regular 9 45 845 49 3 0.216 slower 1 2.165164e+06 2.165168e+06 3.849
30 regular 9 46 846 50 3 0.247 slower 1 2.165169e+06 2.165173e+06 3.919
30 regular 9 47 847 50 3 0.156 slower 1 2.165174e+06 2.165178e+06 4.054
30 regular 9 48 848 51 3 0.366 slower 1 2.165180e+06 2.165184e+06 4.057
30 regular 9 49 849 51 3 0.165 slower 1 2.165185e+06 2.165189e+06 4.113
30 regular 9 50 850 68 3 0.596 faster 1 2.165191e+06 2.165194e+06 3.918
30 regular 9 51 851 68 3 0.428 faster 1 2.165196e+06 2.165200e+06 3.841
30 regular 9 52 852 53 3 0.538 slower 1 2.165201e+06 2.165205e+06 3.740
30 regular 9 53 853 67 3 0.195 faster 1 2.165206e+06 2.165210e+06 3.918
30 regular 9 54 854 54 3 0.401 slower 1 2.165212e+06 2.165215e+06 3.639
30 regular 9 55 855 66 3 0.106 faster 1 2.165216e+06 2.165220e+06 3.914
30 regular 9 56 856 55 3 0.518 faster 0 2.165222e+06 2.165226e+06 4.033
30 regular 9 57 857 66 3 0.498 slower 0 2.165227e+06 2.165231e+06 3.744
30 regular 9 58 858 53 3 0.123 faster 0 2.165232e+06 2.165236e+06 3.838
30 regular 9 59 859 68 3 0.414 faster 1 2.165237e+06 2.165241e+06 3.908
30 regular 9 60 860 52 3 0.400 slower 1 2.165243e+06 2.165247e+06 3.722
30 regular 9 61 861 53 3 0.402 slower 1 2.165248e+06 2.165252e+06 3.703
30 regular 9 62 862 67 3 0.257 slower 0 2.165253e+06 2.165257e+06 4.031
30 regular 9 63 863 68 3 0.133 faster 1 2.165258e+06 2.165262e+06 4.053
30 regular 9 64 864 67 3 0.586 slower 0 2.165264e+06 2.165268e+06 3.892
30 regular 9 65 865 68 3 0.279 faster 1 2.165269e+06 2.165273e+06 3.771
30 regular 9 66 866 68 3 0.504 faster 1 2.165274e+06 2.165278e+06 3.929
30 regular 9 67 867 67 3 0.568 faster 1 2.165280e+06 2.165284e+06 3.753
30 regular 9 68 868 67 3 0.284 faster 1 2.165285e+06 2.165289e+06 3.620
30 regular 9 69 869 66 3 0.208 faster 1 2.165290e+06 2.165294e+06 3.762
30 regular 9 70 870 66 3 0.488 faster 1 2.165295e+06 2.165299e+06 3.734
30 regular 9 71 871 55 3 0.260 slower 1 2.165300e+06 2.165304e+06 4.119
30 regular 9 72 872 55 3 0.598 slower 1 2.165306e+06 2.165309e+06 3.683
30 regular 9 73 873 64 3 0.448 faster 1 2.165311e+06 2.165315e+06 3.929
30 regular 9 74 874 64 3 0.267 faster 1 2.165317e+06 2.165321e+06 3.833
30 regular 9 75 875 57 3 0.536 slower 1 2.165322e+06 2.165326e+06 3.819
30 regular 9 76 876 57 3 0.308 slower 1 2.165327e+06 2.165331e+06 3.764
30 regular 9 77 877 62 3 0.489 faster 1 2.165332e+06 2.165337e+06 4.640
30 regular 9 78 878 62 3 0.462 faster 1 2.165338e+06 2.165342e+06 3.942
30 regular 9 79 879 61 3 0.365 slower 0 2.165343e+06 2.165347e+06 3.858
30 regular 9 80 880 58 3 0.242 slower 1 2.165349e+06 2.165352e+06 3.770
30 regular 9 81 881 62 3 0.164 slower 0 2.165353e+06 2.165357e+06 3.818
30 regular 9 82 882 63 3 0.560 slower 0 2.165359e+06 2.165363e+06 3.721
30 regular 9 83 883 56 3 0.309 slower 1 2.165364e+06 2.165368e+06 3.818
30 regular 9 84 884 57 3 0.505 slower 1 2.165369e+06 2.165373e+06 3.693
30 regular 9 85 885 63 3 0.558 slower 0 2.165374e+06 2.165378e+06 3.758
30 regular 9 86 886 56 3 0.263 faster 0 2.165379e+06 2.165384e+06 4.451
30 regular 9 87 887 55 3 0.156 faster 0 2.165385e+06 2.165389e+06 4.175
30 regular 9 88 888 54 3 0.463 slower 1 2.165391e+06 2.165395e+06 3.706
30 regular 9 89 889 55 3 0.143 slower 1 2.165396e+06 2.165400e+06 3.788
30 regular 9 90 890 55 3 0.391 slower 1 2.165401e+06 2.165405e+06 4.179
30 regular 9 91 891 64 3 0.473 faster 1 2.165407e+06 2.165410e+06 3.657
30 regular 9 92 892 56 3 0.468 slower 1 2.165412e+06 2.165416e+06 4.107
30 regular 9 93 893 63 3 0.554 faster 1 2.165417e+06 2.165421e+06 3.878
30 regular 9 94 894 57 3 0.165 faster 0 2.165423e+06 2.165427e+06 3.880
30 regular 9 95 895 64 3 0.231 slower 0 2.165427e+06 2.165431e+06 3.834
30 regular 9 96 896 65 3 0.317 faster 1 2.165433e+06 2.165437e+06 4.104
30 regular 9 97 897 64 3 0.523 faster 1 2.165438e+06 2.165442e+06 3.721
30 regular 9 98 898 64 3 0.261 faster 1 2.165443e+06 2.165447e+06 4.059
30 regular 9 99 899 63 3 0.493 faster 1 2.165449e+06 2.165453e+06 3.767
30 regular 9 100 900 63 3 0.571 slower 0 2.165454e+06 2.165458e+06 3.815
30 irregular 10 1 901 56 1 0.505 faster 0 2.165473e+06 2.165475e+06 2.093
30 irregular 10 2 902 55 2.500000e+00 0.528 slower 1 2.165476e+06 2.165480e+06 3.426
30 irregular 10 3 903 56 3 0.478 faster 0 2.165481e+06 2.165485e+06 3.912
30 irregular 10 4 904 65 2 0.337 faster 1 2.165486e+06 2.165489e+06 2.864
30 irregular 10 5 905 55 2.500000e+00 0.457 faster 0 2.165491e+06 2.165494e+06 3.800
30 irregular 10 6 906 54 1.500000e+00 0.477 faster 0 2.165496e+06 2.165498e+06 2.331
30 irregular 10 7 907 53 1 0.405 slower 1 2.165500e+06 2.165501e+06 1.752
30 irregular 10 8 908 54 3 0.164 slower 1 2.165502e+06 2.165506e+06 4.037
30 irregular 10 9 909 54 2.500000e+00 0.280 slower 1 2.165507e+06 2.165511e+06 3.409
30 irregular 10 10 910 65 2.500000e+00 0.252 faster 1 2.165511e+06 2.165515e+06 3.403
30 irregular 10 11 911 65 3 0.541 slower 0 2.165516e+06 2.165521e+06 4.371
30 irregular 10 12 912 54 1.500000e+00 0.237 faster 0 2.165522e+06 2.165524e+06 2.271
30 irregular 10 13 913 53 1 0.198 faster 0 2.165526e+06 2.165528e+06 2.180
30 irregular 10 14 914 68 1.500000e+00 0.385 faster 1 2.165529e+06 2.165531e+06 2.436
30 irregular 10 15 915 67 3 0.558 slower 0 2.165533e+06 2.165537e+06 4.047
30 irregular 10 16 916 68 1 0.473 faster 1 2.165538e+06 2.165540e+06 1.764
30 irregular 10 17 917 68 2.500000e+00 0.316 slower 0 2.165541e+06 2.165545e+06 3.342
30 irregular 10 18 918 51 2 0.245 faster 0 2.165546e+06 2.165549e+06 3.073
30 irregular 10 19 919 50 3 0.323 faster 0 2.165551e+06 2.165555e+06 4.021
30 irregular 10 20 920 71 1 0.403 faster 1 2.165556e+06 2.165558e+06 2.215
30 irregular 10 21 921 50 2.500000e+00 0.276 faster 0 2.165560e+06 2.165563e+06 3.445
30 irregular 10 22 922 49 1.500000e+00 0.438 faster 0 2.165565e+06 2.165567e+06 2.706
30 irregular 10 23 923 48 1.500000e+00 0.201 faster 0 2.165568e+06 2.165571e+06 2.313
30 irregular 10 24 924 73 1 0.152 faster 1 2.165572e+06 2.165574e+06 1.736
30 irregular 10 25 925 73 2.500000e+00 0.187 slower 0 2.165575e+06 2.165578e+06 3.419
30 irregular 10 26 926 74 2.500000e+00 0.422 faster 1 2.165579e+06 2.165584e+06 4.151
30 irregular 10 27 927 47 1.500000e+00 0.545 faster 0 2.165585e+06 2.165587e+06 2.379
30 irregular 10 28 928 46 1 0.322 slower 1 2.165589e+06 2.165591e+06 2.038
30 irregular 10 29 929 46 3 0.579 faster 0 2.165593e+06 2.165597e+06 4.016
30 irregular 10 30 930 75 2.500000e+00 0.327 faster 1 2.165598e+06 2.165602e+06 3.680
30 irregular 10 31 931 74 3 0.411 slower 0 2.165603e+06 2.165607e+06 4.052
30 irregular 10 32 932 75 1 0.291 faster 1 2.165608e+06 2.165610e+06 1.822
30 irregular 10 33 933 45 1 0.389 faster 0 2.165611e+06 2.165613e+06 1.986
30 irregular 10 34 934 76 2 0.300 slower 0 2.165614e+06 2.165617e+06 2.786
30 irregular 10 35 935 77 3 0.170 slower 0 2.165618e+06 2.165622e+06 3.847
30 irregular 10 36 936 42 3 0.457 slower 1 2.165624e+06 2.165627e+06 3.888
30 irregular 10 37 937 43 1.500000e+00 0.514 slower 1 2.165629e+06 2.165632e+06 2.725
30 irregular 10 38 938 77 2 0.498 faster 1 2.165633e+06 2.165636e+06 2.655
30 irregular 10 39 939 44 2 0.218 slower 1 2.165637e+06 2.165640e+06 2.716
30 irregular 10 40 940 76 2 0.424 faster 1 2.165641e+06 2.165644e+06 2.699
30 irregular 10 41 941 45 3 0.114 faster 0 2.165645e+06 2.165649e+06 3.899
30 irregular 10 42 942 76 1 0.346 faster 1 2.165650e+06 2.165652e+06 1.828
30 irregular 10 43 943 44 2.500000e+00 0.180 slower 1 2.165653e+06 2.165656e+06 3.435
30 irregular 10 44 944 45 2 0.331 slower 1 2.165658e+06 2.165660e+06 2.857
30 irregular 10 45 945 75 1.500000e+00 0.408 faster 1 2.165662e+06 2.165664e+06 2.225
30 irregular 10 46 946 46 2.500000e+00 0.220 slower 1 2.165665e+06 2.165668e+06 3.321
30 irregular 10 47 947 74 2 0.171 faster 1 2.165670e+06 2.165672e+06 2.693
30 irregular 10 48 948 73 1.500000e+00 0.120 faster 1 2.165673e+06 2.165676e+06 2.413
30 irregular 10 49 949 47 3 0.516 slower 1 2.165677e+06 2.165681e+06 3.967
30 irregular 10 50 950 48 3 0.239 slower 1 2.165682e+06 2.165686e+06 3.963
30 irregular 10 51 951 48 1.500000e+00 0.176 faster 0 2.165687e+06 2.165690e+06 2.442
30 irregular 10 52 952 73 2 0.350 faster 1 2.165691e+06 2.165694e+06 3.348
30 irregular 10 53 953 48 2 0.392 faster 0 2.165696e+06 2.165699e+06 2.957
30 irregular 10 54 954 73 2 0.143 slower 0 2.165700e+06 2.165703e+06 2.882
30 irregular 10 55 955 74 2.500000e+00 0.588 faster 1 2.165705e+06 2.165708e+06 3.279
30 irregular 10 56 956 46 1 0.406 faster 0 2.165709e+06 2.165711e+06 2.073
30 irregular 10 57 957 75 1.500000e+00 0.571 slower 0 2.165713e+06 2.165715e+06 2.283
30 irregular 10 58 958 76 1 0.226 slower 0 2.165717e+06 2.165719e+06 2.630
30 irregular 10 59 959 43 1.500000e+00 0.430 faster 0 2.165721e+06 2.165724e+06 2.766
30 irregular 10 60 960 78 1 0.305 slower 0 2.165725e+06 2.165727e+06 2.422
30 irregular 10 61 961 79 1 0.253 faster 1 2.165728e+06 2.165730e+06 1.701
30 irregular 10 62 962 78 3 0.305 slower 0 2.165731e+06 2.165735e+06 4.006
30 irregular 10 63 963 41 2 0.327 slower 1 2.165737e+06 2.165740e+06 2.939
30 irregular 10 64 964 41 1 0.354 slower 1 2.165741e+06 2.165743e+06 2.140
30 irregular 10 65 965 78 1.500000e+00 0.344 faster 1 2.165744e+06 2.165747e+06 2.365
30 irregular 10 66 966 78 2.500000e+00 0.147 slower 0 2.165748e+06 2.165751e+06 3.445
30 irregular 10 67 967 41 2.500000e+00 0.416 slower 1 2.165753e+06 2.165756e+06 3.293
30 irregular 10 68 968 78 1.500000e+00 0.265 faster 1 2.165757e+06 2.165759e+06 2.159
30 irregular 10 69 969 78 1 0.177 slower 0 2.165761e+06 2.165762e+06 1.791
30 irregular 10 70 970 79 3 0.196 faster 1 2.165764e+06 2.165767e+06 3.760
30 irregular 10 71 971 42 2 0.488 slower 1 2.165769e+06 2.165772e+06 2.915
30 irregular 10 72 972 78 1 0.367 slower 0 2.165773e+06 2.165776e+06 2.209
30 irregular 10 73 973 79 1.500000e+00 0.427 slower 0 2.165777e+06 2.165780e+06 2.510
30 irregular 10 74 974 40 1.500000e+00 0.388 slower 1 2.165781e+06 2.165783e+06 2.343
30 irregular 10 75 975 41 2 0.335 slower 1 2.165785e+06 2.165788e+06 3.109
30 irregular 10 76 976 41 1 0.427 slower 1 2.165789e+06 2.165791e+06 2.172
30 irregular 10 77 977 42 2.500000e+00 0.413 slower 1 2.165793e+06 2.165797e+06 3.623
30 irregular 10 78 978 78 2.500000e+00 0.166 faster 1 2.165798e+06 2.165801e+06 3.334
30 irregular 10 79 979 43 2.500000e+00 0.320 slower 1 2.165802e+06 2.165806e+06 3.709
30 irregular 10 80 980 43 1 0.588 slower 1 2.165808e+06 2.165810e+06 2.232
30 irregular 10 81 981 44 2 0.249 slower 1 2.165811e+06 2.165815e+06 3.300
30 irregular 10 82 982 76 2 0.449 faster 1 2.165816e+06 2.165819e+06 2.866
30 irregular 10 83 983 75 3 0.497 faster 1 2.165821e+06 2.165825e+06 3.969
30 irregular 10 84 984 45 3 0.231 slower 1 2.165826e+06 2.165830e+06 3.690
30 irregular 10 85 985 46 2 0.302 slower 1 2.165831e+06 2.165834e+06 2.776
30 irregular 10 86 986 74 1.500000e+00 0.337 faster 1 2.165835e+06 2.165838e+06 2.336
30 irregular 10 87 987 47 2.500000e+00 0.118 slower 1 2.165839e+06 2.165842e+06 3.284
30 irregular 10 88 988 47 3 0.333 slower 1 2.165844e+06 2.165848e+06 4.022
30 irregular 10 89 989 48 2 0.303 slower 1 2.165849e+06 2.165852e+06 2.847
30 irregular 10 90 990 72 1.500000e+00 0.478 faster 1 2.165853e+06 2.165856e+06 2.130
30 irregular 10 91 991 71 3 0.458 faster 1 2.165857e+06 2.165861e+06 3.779
30 irregular 10 92 992 71 2 0.384 faster 1 2.165862e+06 2.165865e+06 2.799
30 irregular 10 93 993 50 1.500000e+00 0.164 slower 1 2.165866e+06 2.165869e+06 2.226
30 irregular 10 94 994 50 1 0.460 slower 1 2.165870e+06 2.165872e+06 1.933
30 irregular 10 95 995 69 2.500000e+00 0.329 slower 0 2.165873e+06 2.165877e+06 3.255
30 irregular 10 96 996 70 1.500000e+00 0.278 faster 1 2.165878e+06 2.165881e+06 2.410
30 irregular 10 97 997 70 3 0.338 faster 1 2.165882e+06 2.165886e+06 3.768
30 irregular 10 98 998 69 2 0.329 slower 0 2.165887e+06 2.165890e+06 2.848
30 irregular 10 99 999 70 3 0.308 slower 0 2.165891e+06 2.165895e+06 3.835
30 irregular 10 100 1000 71 2.500000e+00 0.490 slower 0 2.165897e+06 2.165900e+06 3.409
