subNo condition blockNo trialNo trialID currentFrequency cueTargetInterval randomPreCueInterval response responseAccuracy startTime responseTime RT
26 regular 1 1 1 82 2.500000e+00 0.133 faster 1 1.478581e+06 1.478584e+06 3.001
26 regular 1 2 2 38 2.500000e+00 0.213 faster 0 1.478586e+06 1.478590e+06 3.763
26 regular 1 3 3 84 2.500000e+00 0.272 faster 1 1.478592e+06 1.478595e+06 3.342
26 regular 1 4 4 38 2.500000e+00 0.115 slower 1 1.478597e+06 1.478601e+06 3.359
26 regular 1 5 5 82 2.500000e+00 0.163 faster 1 1.478602e+06 1.478605e+06 2.879
26 regular 1 6 6 40 2.500000e+00 0.278 faster 0 1.478606e+06 1.478610e+06 3.528
26 regular 1 7 7 82 2.500000e+00 0.423 faster 1 1.478611e+06 1.478615e+06 3.186
26 regular 1 8 8 38 2.500000e+00 0.358 slower 1 1.478617e+06 1.478620e+06 3.374
26 regular 1 9 9 40 2.500000e+00 0.476 faster 0 1.478622e+06 1.478625e+06 3.447
26 regular 1 10 10 82 2.500000e+00 0.492 faster 1 1.478627e+06 1.478630e+06 2.963
26 regular 1 11 11 38 2.500000e+00 0.187 faster 0 1.478633e+06 1.478637e+06 3.178
26 regular 1 12 12 83 2.500000e+00 0.582 faster 1 1.478638e+06 1.478641e+06 3.186
26 regular 1 13 13 38 2.500000e+00 0.180 faster 0 1.478643e+06 1.478646e+06 2.981
26 regular 1 14 14 37 2.500000e+00 0.297 faster 0 1.478647e+06 1.478650e+06 2.977
26 regular 1 15 15 36 2.500000e+00 0.218 faster 0 1.478653e+06 1.478655e+06 2.859
26 regular 1 16 16 35 2.500000e+00 0.455 faster 0 1.478657e+06 1.478660e+06 2.877
26 regular 1 17 17 34 2.500000e+00 0.424 faster 0 1.478663e+06 1.478666e+06 3.061
26 regular 1 18 18 33 2.500000e+00 0.372 faster 0 1.478667e+06 1.478670e+06 2.941
26 regular 1 19 19 32 2.500000e+00 0.235 slower 1 1.478672e+06 1.478675e+06 3.561
26 regular 1 20 20 32 2.500000e+00 0.388 faster 0 1.478677e+06 1.478681e+06 3.369
26 regular 1 21 21 89 2.500000e+00 0.405 faster 1 1.478682e+06 1.478685e+06 2.999
26 regular 1 22 22 32 2.500000e+00 0.150 faster 0 1.478688e+06 1.478692e+06 3.217
26 regular 1 23 23 89 2.500000e+00 0.243 faster 1 1.478694e+06 1.478697e+06 2.822
26 regular 1 24 24 31 2.500000e+00 0.544 faster 0 1.478698e+06 1.478701e+06 2.853
26 regular 1 25 25 30 2.500000e+00 0.236 faster 0 1.478703e+06 1.478706e+06 3.128
26 regular 1 26 26 90 2.500000e+00 0.538 faster 1 1.478708e+06 1.478711e+06 2.844
26 regular 1 27 27 31 2.500000e+00 0.477 faster 0 1.478713e+06 1.478716e+06 2.820
26 regular 1 28 28 90 2.500000e+00 0.456 faster 1 1.478717e+06 1.478720e+06 2.806
26 regular 1 29 29 30 2.500000e+00 0.161 faster 0 1.478723e+06 1.478725e+06 2.840
26 regular 1 30 30 90 2.500000e+00 0.599 faster 1 1.478727e+06 1.478730e+06 3.082
26 regular 1 31 31 89 2.500000e+00 0.474 faster 1 1.478733e+06 1.478736e+06 2.995
26 regular 1 32 32 31 2.500000e+00 0.237 faster 0 1.478738e+06 1.478741e+06 2.905
26 regular 1 33 33 90 2.500000e+00 0.486 faster 1 1.478742e+06 1.478746e+06 3.219
26 regular 1 34 34 31 2.500000e+00 0.114 slower 1 1.478747e+06 1.478750e+06 3.137
26 regular 1 35 35 31 2.500000e+00 0.335 slower 1 1.478752e+06 1.478756e+06 3.449
26 regular 1 36 36 88 2.500000e+00 0.552 faster 1 1.478758e+06 1.478761e+06 3.074
26 regular 1 37 37 88 2.500000e+00 0.336 faster 1 1.478764e+06 1.478767e+06 3.001
26 regular 1 38 38 87 2.500000e+00 0.403 faster 1 1.478770e+06 1.478773e+06 3.065
26 regular 1 39 39 33 2.500000e+00 0.258 slower 1 1.478777e+06 1.478780e+06 3.208
26 regular 1 40 40 86 2.500000e+00 0.250 faster 1 1.478783e+06 1.478786e+06 3.042
26 regular 1 41 41 34 2.500000e+00 0.276 slower 1 1.478789e+06 1.478792e+06 3.067
26 regular 1 42 42 35 2.500000e+00 0.382 slower 1 1.478794e+06 1.478798e+06 3.379
26 regular 1 43 43 85 2.500000e+00 0.108 faster 1 1.478800e+06 1.478803e+06 2.888
26 regular 1 44 44 84 2.500000e+00 0.436 faster 1 1.478806e+06 1.478809e+06 2.877
26 regular 1 45 45 36 2.500000e+00 0.572 faster 0 1.478811e+06 1.478814e+06 2.981
26 regular 1 46 46 85 2.500000e+00 0.486 faster 1 1.478818e+06 1.478821e+06 2.858
26 regular 1 47 47 36 2.500000e+00 0.412 faster 0 1.478823e+06 1.478826e+06 3.030
26 regular 1 48 48 85 2.500000e+00 0.419 faster 1 1.478828e+06 1.478831e+06 3.092
26 regular 1 49 49 85 2.500000e+00 0.139 faster 1 1.478833e+06 1.478836e+06 2.994
26 regular 1 50 50 36 2.500000e+00 0.409 slower 1 1.478840e+06 1.478843e+06 3.230
26 regular 1 51 51 36 2.500000e+00 0.584 slower 1 1.478845e+06 1.478848e+06 3.047
26 regular 1 52 52 83 2.500000e+00 0.366 faster 1 1.478850e+06 1.478853e+06 3.012
26 regular 1 53 53 83 2.500000e+00 0.381 faster 1 1.478856e+06 1.478859e+06 3.168
26 regular 1 54 54 82 2.500000e+00 0.350 faster 1 1.478860e+06 1.478864e+06 3.082
26 regular 1 55 55 82 2.500000e+00 0.562 faster 1 1.478866e+06 1.478869e+06 3.120
26 regular 1 56 56 81 2.500000e+00 0.512 faster 1 1.478871e+06 1.478873e+06 2.870
26 regular 1 57 57 81 2.500000e+00 0.404 faster 1 1.478875e+06 1.478878e+06 2.901
26 regular 1 58 58 80 2.500000e+00 0.139 faster 1 1.478879e+06 1.478882e+06 2.816
26 regular 1 59 59 40 2.500000e+00 0.244 faster 0 1.478884e+06 1.478887e+06 2.761
26 regular 1 60 60 81 2.500000e+00 0.540 faster 1 1.478890e+06 1.478894e+06 3.348
26 regular 1 61 61 40 2.500000e+00 0.284 slower 1 1.478896e+06 1.478899e+06 3.513
26 regular 1 62 62 40 2.500000e+00 0.159 slower 1 1.478900e+06 1.478905e+06 4.372
26 regular 1 63 63 79 2.500000e+00 0.184 faster 1 1.478908e+06 1.478912e+06 4.854
26 regular 1 64 64 79 2.500000e+00 0.180 faster 1 1.478914e+06 1.478917e+06 3.034
26 regular 1 65 65 42 2.500000e+00 0.301 faster 0 1.478918e+06 1.478921e+06 3.048
26 regular 1 66 66 79 2.500000e+00 0.394 faster 1 1.478923e+06 1.478926e+06 3.339
26 regular 1 67 67 41 2.500000e+00 0.475 faster 0 1.478927e+06 1.478931e+06 3.697
26 regular 1 68 68 80 2.500000e+00 0.424 slower 0 1.478933e+06 1.478936e+06 2.978
26 regular 1 69 69 39 2.500000e+00 0.403 slower 1 1.478938e+06 1.478941e+06 3.032
26 regular 1 70 70 40 2.500000e+00 0.432 slower 1 1.478944e+06 1.478947e+06 3.335
26 regular 1 71 71 80 2.500000e+00 0.409 faster 1 1.478949e+06 1.478952e+06 3.416
26 regular 1 72 72 41 2.500000e+00 0.175 faster 0 1.478955e+06 1.478958e+06 2.760
26 regular 1 73 73 80 2.500000e+00 0.280 faster 1 1.478960e+06 1.478963e+06 2.800
26 regular 1 74 74 80 2.500000e+00 0.169 slower 0 1.478965e+06 1.478968e+06 2.761
26 regular 1 75 75 39 2.500000e+00 0.575 faster 0 1.478971e+06 1.478974e+06 2.997
26 regular 1 76 76 82 2.500000e+00 0.234 slower 0 1.478977e+06 1.478980e+06 3.104
26 regular 1 77 77 37 2.500000e+00 0.536 slower 1 1.478982e+06 1.478985e+06 3.125
26 regular 1 78 78 38 2.500000e+00 0.313 faster 0 1.478986e+06 1.478990e+06 3.935
26 regular 1 79 79 37 2.500000e+00 0.289 slower 1 1.478992e+06 1.478995e+06 3.297
26 regular 1 80 80 83 2.500000e+00 0.378 slower 0 1.478997e+06 1.479000e+06 2.978
26 regular 1 81 81 84 2.500000e+00 0.164 slower 0 1.479004e+06 1.479006e+06 2.900
26 regular 1 82 82 85 2.500000e+00 0.307 faster 1 1.479008e+06 1.479011e+06 2.964
26 regular 1 83 83 36 2.500000e+00 0.533 slower 1 1.479013e+06 1.479016e+06 2.943
26 regular 1 84 84 84 2.500000e+00 0.131 slower 0 1.479018e+06 1.479021e+06 3.280
26 regular 1 85 85 35 2.500000e+00 0.564 slower 1 1.479023e+06 1.479026e+06 3.002
26 regular 1 86 86 84 2.500000e+00 0.567 slower 0 1.479028e+06 1.479031e+06 2.860
26 regular 1 87 87 35 2.500000e+00 0.470 slower 1 1.479034e+06 1.479037e+06 2.945
26 regular 1 88 88 85 2.500000e+00 0.512 slower 0 1.479040e+06 1.479043e+06 3.029
26 regular 1 89 89 86 2.500000e+00 0.589 slower 0 1.479047e+06 1.479050e+06 2.898
26 regular 1 90 90 87 2.500000e+00 0.172 slower 0 1.479051e+06 1.479054e+06 2.804
26 regular 1 91 91 88 2.500000e+00 0.385 slower 0 1.479057e+06 1.479060e+06 2.862
26 regular 1 92 92 89 2.500000e+00 0.214 slower 0 1.479061e+06 1.479064e+06 2.875
26 regular 1 93 93 30 2.500000e+00 0.215 slower 1 1.479069e+06 1.479072e+06 3.104
26 regular 1 94 94 31 2.500000e+00 0.125 slower 1 1.479074e+06 1.479077e+06 2.889
26 regular 1 95 95 31 2.500000e+00 0.599 slower 1 1.479080e+06 1.479083e+06 2.801
26 regular 1 96 96 32 2.500000e+00 0.505 slower 1 1.479086e+06 1.479089e+06 3.028
26 regular 1 97 97 88 2.500000e+00 0.324 slower 0 1.479092e+06 1.479095e+06 2.994
26 regular 1 98 98 31 2.500000e+00 0.283 slower 1 1.479097e+06 1.479100e+06 3.145
26 regular 1 99 99 88 2.500000e+00 0.316 slower 0 1.479102e+06 1.479105e+06 3.080
26 regular 1 100 100 31 2.500000e+00 0.255 faster 0 1.479107e+06 1.479110e+06 3.264
26 irregular 2 1 101 90 1.500000e+00 0.197 faster 1 1.479436e+06 1.479439e+06 2.520
26 irregular 2 2 102 30 3 0.486 faster 0 1.479440e+06 1.479444e+06 3.890
26 irregular 2 3 103 90 3 0.560 faster 1 1.479445e+06 1.479449e+06 3.913
26 irregular 2 4 104 89 1 0.452 faster 1 1.479451e+06 1.479453e+06 2.056
26 irregular 2 5 105 31 2 0.122 faster 0 1.479454e+06 1.479457e+06 2.822
26 irregular 2 6 106 30 2 0.592 faster 0 1.479458e+06 1.479461e+06 2.763
26 irregular 2 7 107 90 2 0.536 faster 1 1.479462e+06 1.479465e+06 2.564
26 irregular 2 8 108 31 2.500000e+00 0.160 faster 0 1.479466e+06 1.479469e+06 3.226
26 irregular 2 9 109 30 3 0.426 faster 0 1.479471e+06 1.479475e+06 3.691
26 irregular 2 10 110 30 2.500000e+00 0.218 faster 0 1.479476e+06 1.479479e+06 2.928
26 irregular 2 11 111 30 2 0.275 faster 0 1.479480e+06 1.479482e+06 2.485
26 irregular 2 12 112 30 2.500000e+00 0.334 faster 0 1.479484e+06 1.479487e+06 2.873
26 irregular 2 13 113 90 2.500000e+00 0.413 faster 1 1.479488e+06 1.479491e+06 3.158
26 irregular 2 14 114 30 1 0.365 faster 0 1.479493e+06 1.479495e+06 1.603
26 irregular 2 15 115 30 1.500000e+00 0.195 faster 0 1.479496e+06 1.479498e+06 2.124
26 irregular 2 16 116 90 2 0.215 faster 1 1.479499e+06 1.479501e+06 2.504
26 irregular 2 17 117 89 3 0.168 faster 1 1.479504e+06 1.479507e+06 3.439
26 irregular 2 18 118 31 3 0.507 faster 0 1.479508e+06 1.479512e+06 3.526
26 irregular 2 19 119 30 2 0.378 faster 0 1.479513e+06 1.479516e+06 2.385
26 irregular 2 20 120 90 3 0.402 faster 1 1.479517e+06 1.479521e+06 3.382
26 irregular 2 21 121 31 1 0.163 faster 0 1.479523e+06 1.479525e+06 1.708
26 irregular 2 22 122 90 2.500000e+00 0.575 faster 1 1.479527e+06 1.479530e+06 2.952
26 irregular 2 23 123 30 2 0.577 faster 0 1.479532e+06 1.479535e+06 2.419
26 irregular 2 24 124 30 2 0.382 faster 0 1.479536e+06 1.479539e+06 2.355
26 irregular 2 25 125 90 2.500000e+00 0.136 faster 1 1.479540e+06 1.479543e+06 2.965
26 irregular 2 26 126 31 1 0.543 faster 0 1.479545e+06 1.479547e+06 1.463
26 irregular 2 27 127 30 3 0.328 faster 0 1.479549e+06 1.479552e+06 3.735
26 irregular 2 28 128 30 1.500000e+00 0.435 faster 0 1.479555e+06 1.479557e+06 2.032
26 irregular 2 29 129 30 3 0.308 faster 0 1.479559e+06 1.479562e+06 3.486
26 irregular 2 30 130 90 1 0.239 faster 1 1.479564e+06 1.479566e+06 1.475
26 irregular 2 31 131 30 2.500000e+00 0.101 faster 0 1.479567e+06 1.479570e+06 3.009
26 irregular 2 32 132 90 2.500000e+00 0.270 faster 1 1.479572e+06 1.479575e+06 2.822
26 irregular 2 33 133 89 1 0.427 faster 1 1.479577e+06 1.479579e+06 1.491
26 irregular 2 34 134 89 2.500000e+00 0.105 faster 1 1.479579e+06 1.479582e+06 3.009
26 irregular 2 35 135 88 1.500000e+00 0.473 faster 1 1.479584e+06 1.479586e+06 1.837
26 irregular 2 36 136 32 1.500000e+00 0.212 faster 0 1.479588e+06 1.479590e+06 1.802
26 irregular 2 37 137 31 1.500000e+00 0.276 faster 0 1.479592e+06 1.479594e+06 1.837
26 irregular 2 38 138 30 2 0.514 faster 0 1.479597e+06 1.479599e+06 2.382
26 irregular 2 39 139 90 1.500000e+00 0.341 faster 1 1.479601e+06 1.479603e+06 1.859
26 irregular 2 40 140 89 1 0.581 faster 1 1.479605e+06 1.479606e+06 1.360
26 irregular 2 41 141 89 1 0.570 faster 1 1.479608e+06 1.479609e+06 1.345
26 irregular 2 42 142 32 1.500000e+00 0.578 faster 0 1.479611e+06 1.479612e+06 1.827
26 irregular 2 43 143 89 2.500000e+00 0.427 faster 1 1.479614e+06 1.479616e+06 2.807
26 irregular 2 44 144 31 2 0.547 faster 0 1.479619e+06 1.479621e+06 2.454
26 irregular 2 45 145 90 2 0.423 faster 1 1.479624e+06 1.479626e+06 2.418
26 irregular 2 46 146 31 1.500000e+00 0.105 faster 0 1.479628e+06 1.479630e+06 1.881
26 irregular 2 47 147 30 1 0.348 faster 0 1.479632e+06 1.479634e+06 1.809
26 irregular 2 48 148 30 1 0.216 faster 0 1.479636e+06 1.479637e+06 1.425
26 irregular 2 49 149 30 2.500000e+00 0.325 slower 1 1.479639e+06 1.479642e+06 3.559
26 irregular 2 50 150 90 1 0.449 faster 1 1.479644e+06 1.479646e+06 1.479
26 irregular 2 51 151 31 2 0.337 faster 0 1.479648e+06 1.479650e+06 2.475
26 irregular 2 52 152 30 1 0.431 faster 0 1.479652e+06 1.479653e+06 1.492
26 irregular 2 53 153 90 1.500000e+00 0.585 faster 1 1.479655e+06 1.479657e+06 1.761
26 irregular 2 54 154 90 1.500000e+00 0.420 faster 1 1.479660e+06 1.479661e+06 1.788
26 irregular 2 55 155 31 1 0.462 faster 0 1.479663e+06 1.479665e+06 1.456
26 irregular 2 56 156 90 2 0.545 faster 1 1.479666e+06 1.479668e+06 2.357
26 irregular 2 57 157 90 3 0.317 faster 1 1.479671e+06 1.479675e+06 3.350
26 irregular 2 58 158 89 1 0.490 faster 1 1.479676e+06 1.479678e+06 1.494
26 irregular 2 59 159 89 2.500000e+00 0.147 faster 1 1.479680e+06 1.479683e+06 2.934
26 irregular 2 60 160 88 3 0.206 faster 1 1.479684e+06 1.479688e+06 3.313
26 irregular 2 61 161 32 2.500000e+00 0.338 faster 0 1.479690e+06 1.479693e+06 2.823
26 irregular 2 62 162 31 1.500000e+00 0.178 faster 0 1.479694e+06 1.479696e+06 1.892
26 irregular 2 63 163 90 2.500000e+00 0.548 faster 1 1.479698e+06 1.479701e+06 2.870
26 irregular 2 64 164 31 2.500000e+00 0.264 faster 0 1.479703e+06 1.479706e+06 2.982
26 irregular 2 65 165 30 3 0.282 faster 0 1.479708e+06 1.479711e+06 3.309
26 irregular 2 66 166 90 3 0.581 faster 1 1.479714e+06 1.479717e+06 3.288
26 irregular 2 67 167 90 2.500000e+00 0.294 faster 1 1.479718e+06 1.479721e+06 2.889
26 irregular 2 68 168 89 3 0.227 faster 1 1.479723e+06 1.479727e+06 3.390
26 irregular 2 69 169 31 3 0.385 faster 0 1.479730e+06 1.479733e+06 3.455
26 irregular 2 70 170 90 2 0.500 faster 1 1.479735e+06 1.479737e+06 2.292
26 irregular 2 71 171 89 2 0.278 faster 1 1.479740e+06 1.479742e+06 2.315
26 irregular 2 72 172 89 1.500000e+00 0.177 faster 1 1.479744e+06 1.479746e+06 1.817
26 irregular 2 73 173 88 3 0.542 faster 1 1.479748e+06 1.479751e+06 3.261
26 irregular 2 74 174 32 1.500000e+00 0.154 faster 0 1.479754e+06 1.479756e+06 1.839
26 irregular 2 75 175 31 2.500000e+00 0.323 faster 0 1.479758e+06 1.479761e+06 2.903
26 irregular 2 76 176 30 1 0.285 faster 0 1.479763e+06 1.479764e+06 1.454
26 irregular 2 77 177 90 2 0.183 faster 1 1.479765e+06 1.479768e+06 2.529
26 irregular 2 78 178 89 1.500000e+00 0.477 faster 1 1.479769e+06 1.479771e+06 1.855
26 irregular 2 79 179 31 3 0.411 faster 0 1.479773e+06 1.479777e+06 3.312
26 irregular 2 80 180 30 1.500000e+00 0.314 faster 0 1.479779e+06 1.479781e+06 1.914
26 irregular 2 81 181 30 2.500000e+00 0.437 faster 0 1.479782e+06 1.479785e+06 3.024
26 irregular 2 82 182 30 3 0.496 faster 0 1.479788e+06 1.479792e+06 3.993
26 irregular 2 83 183 30 1 0.382 faster 0 1.479794e+06 1.479795e+06 1.507
26 irregular 2 84 184 90 3 0.155 faster 1 1.479797e+06 1.479800e+06 3.550
26 irregular 2 85 185 89 2 0.561 faster 1 1.479803e+06 1.479805e+06 2.742
26 irregular 2 86 186 89 2.500000e+00 0.184 faster 1 1.479807e+06 1.479810e+06 2.976
26 irregular 2 87 187 32 2.500000e+00 0.451 faster 0 1.479812e+06 1.479815e+06 2.801
26 irregular 2 88 188 89 1.500000e+00 0.102 faster 1 1.479817e+06 1.479818e+06 1.834
26 irregular 2 89 189 31 1.500000e+00 0.407 faster 0 1.479820e+06 1.479822e+06 1.794
26 irregular 2 90 190 90 2 0.500 faster 1 1.479823e+06 1.479825e+06 2.233
26 irregular 2 91 191 89 2 0.290 faster 1 1.479827e+06 1.479829e+06 2.261
26 irregular 2 92 192 31 1 0.224 slower 1 1.479831e+06 1.479833e+06 1.423
26 irregular 2 93 193 88 1.500000e+00 0.439 faster 1 1.479834e+06 1.479836e+06 1.985
26 irregular 2 94 194 88 1 0.175 faster 1 1.479837e+06 1.479839e+06 1.520
26 irregular 2 95 195 87 1 0.346 faster 1 1.479840e+06 1.479841e+06 1.516
26 irregular 2 96 196 87 1 0.218 faster 1 1.479842e+06 1.479844e+06 1.564
26 irregular 2 97 197 86 3 0.316 faster 1 1.479845e+06 1.479849e+06 3.741
26 irregular 2 98 198 34 2 0.379 slower 1 1.479851e+06 1.479854e+06 2.681
26 irregular 2 99 199 85 1.500000e+00 0.478 faster 1 1.479856e+06 1.479858e+06 2.113
26 irregular 2 100 200 35 3 0.458 faster 0 1.479859e+06 1.479863e+06 3.686
26 regular 3 1 201 86 3 0.198 faster 1 1.479898e+06 1.479902e+06 3.440
26 regular 3 2 202 35 3 0.359 faster 0 1.479903e+06 1.479906e+06 3.494
26 regular 3 3 203 34 3 0.308 faster 0 1.479908e+06 1.479911e+06 3.463
26 regular 3 4 204 87 3 0.332 faster 1 1.479913e+06 1.479916e+06 3.344
26 regular 3 5 205 33 3 0.467 faster 0 1.479917e+06 1.479921e+06 3.323
26 regular 3 6 206 32 3 0.235 faster 0 1.479922e+06 1.479926e+06 3.591
26 regular 3 7 207 89 3 0.398 faster 1 1.479928e+06 1.479931e+06 3.277
26 regular 3 8 208 32 3 0.404 faster 0 1.479933e+06 1.479937e+06 3.289
26 regular 3 9 209 89 3 0.561 faster 1 1.479938e+06 1.479941e+06 3.356
26 regular 3 10 210 89 3 0.417 faster 1 1.479944e+06 1.479948e+06 3.305
26 regular 3 11 211 32 3 0.166 faster 0 1.479949e+06 1.479953e+06 3.431
26 regular 3 12 212 31 3 0.465 faster 0 1.479954e+06 1.479958e+06 3.491
26 regular 3 13 213 90 3 0.112 faster 1 1.479961e+06 1.479965e+06 3.426
26 regular 3 14 214 30 3 0.143 faster 0 1.479966e+06 1.479969e+06 3.340
26 regular 3 15 215 90 3 0.321 faster 1 1.479971e+06 1.479975e+06 3.313
26 regular 3 16 216 31 3 0.321 faster 0 1.479976e+06 1.479979e+06 3.398
26 regular 3 17 217 90 3 0.484 faster 1 1.479982e+06 1.479985e+06 3.344
26 regular 3 18 218 30 3 0.411 faster 0 1.479987e+06 1.479991e+06 3.336
26 regular 3 19 219 90 3 0.205 faster 1 1.479992e+06 1.479996e+06 3.262
26 regular 3 20 220 31 3 0.453 faster 0 1.479997e+06 1.480000e+06 3.320
26 regular 3 21 221 30 3 0.467 faster 0 1.480002e+06 1.480005e+06 3.250
26 regular 3 22 222 30 3 0.383 faster 0 1.480007e+06 1.480011e+06 3.517
26 regular 3 23 223 90 3 0.393 faster 1 1.480013e+06 1.480016e+06 3.287
26 regular 3 24 224 30 3 0.233 faster 0 1.480018e+06 1.480021e+06 3.389
26 regular 3 25 225 90 3 0.572 faster 1 1.480022e+06 1.480026e+06 3.417
26 regular 3 26 226 89 3 0.453 faster 1 1.480027e+06 1.480030e+06 3.265
26 regular 3 27 227 31 3 0.461 faster 0 1.480033e+06 1.480036e+06 3.282
26 regular 3 28 228 90 3 0.325 none 2 1.480039e+06 1.480045e+06 5.999
26 regular 3 29 229 90 3 0.201 faster 1 1.480046e+06 1.480049e+06 3.480
26 regular 3 30 230 31 3 0.441 faster 0 1.480051e+06 1.480055e+06 3.427
26 regular 3 31 231 30 3 0.281 faster 0 1.480057e+06 1.480061e+06 3.319
26 regular 3 32 232 30 3 0.592 faster 0 1.480064e+06 1.480067e+06 3.349
26 regular 3 33 233 30 3 0.579 faster 0 1.480070e+06 1.480074e+06 3.354
26 regular 3 34 234 30 3 0.450 faster 0 1.480075e+06 1.480079e+06 3.325
26 regular 3 35 235 30 3 0.167 faster 0 1.480081e+06 1.480084e+06 3.265
26 regular 3 36 236 30 3 0.186 faster 0 1.480087e+06 1.480090e+06 3.311
26 regular 3 37 237 90 3 0.521 faster 1 1.480092e+06 1.480095e+06 3.326
26 regular 3 38 238 30 3 0.357 faster 0 1.480096e+06 1.480100e+06 3.500
26 regular 3 39 239 90 3 0.401 faster 1 1.480102e+06 1.480105e+06 3.334
26 regular 3 40 240 31 3 0.498 faster 0 1.480108e+06 1.480111e+06 3.389
26 regular 3 41 241 90 3 0.377 faster 1 1.480114e+06 1.480117e+06 3.272
26 regular 3 42 242 30 3 0.537 faster 0 1.480118e+06 1.480122e+06 3.266
26 regular 3 43 243 90 3 0.578 faster 1 1.480125e+06 1.480128e+06 3.318
26 regular 3 44 244 31 3 0.321 faster 0 1.480131e+06 1.480134e+06 3.269
26 regular 3 45 245 90 3 0.558 faster 1 1.480136e+06 1.480140e+06 3.304
26 regular 3 46 246 90 3 0.432 faster 1 1.480144e+06 1.480147e+06 3.306
26 regular 3 47 247 89 3 0.570 faster 1 1.480150e+06 1.480153e+06 3.270
26 regular 3 48 248 31 3 0.509 faster 0 1.480155e+06 1.480158e+06 3.484
26 regular 3 49 249 30 3 0.570 faster 0 1.480160e+06 1.480163e+06 3.511
26 regular 3 50 250 90 3 0.166 faster 1 1.480165e+06 1.480168e+06 3.367
26 regular 3 51 251 89 3 0.211 faster 1 1.480170e+06 1.480173e+06 3.317
26 regular 3 52 252 31 3 0.324 faster 0 1.480175e+06 1.480178e+06 3.376
26 regular 3 53 253 90 3 0.214 faster 1 1.480180e+06 1.480184e+06 3.457
26 regular 3 54 254 31 3 0.145 faster 0 1.480185e+06 1.480188e+06 3.460
26 regular 3 55 255 90 3 0.367 faster 1 1.480190e+06 1.480193e+06 3.281
26 regular 3 56 256 30 3 0.255 faster 0 1.480195e+06 1.480199e+06 3.535
26 regular 3 57 257 30 3 0.121 faster 0 1.480201e+06 1.480204e+06 3.680
26 regular 3 58 258 90 3 0.270 faster 1 1.480205e+06 1.480209e+06 3.507
26 regular 3 59 259 89 3 0.130 faster 1 1.480211e+06 1.480215e+06 3.350
26 regular 3 60 260 89 3 0.342 faster 1 1.480216e+06 1.480220e+06 3.370
26 regular 3 61 261 32 3 0.327 faster 0 1.480221e+06 1.480224e+06 3.418
26 regular 3 62 262 89 3 0.519 faster 1 1.480226e+06 1.480229e+06 3.315
26 regular 3 63 263 89 3 0.443 faster 1 1.480231e+06 1.480234e+06 3.295
26 regular 3 64 264 88 3 0.520 faster 1 1.480236e+06 1.480240e+06 3.493
26 regular 3 65 265 88 3 0.312 faster 1 1.480241e+06 1.480244e+06 3.423
26 regular 3 66 266 33 3 0.423 faster 0 1.480246e+06 1.480250e+06 3.355
26 regular 3 67 267 32 3 0.265 faster 0 1.480252e+06 1.480255e+06 3.309
26 regular 3 68 268 89 3 0.322 faster 1 1.480257e+06 1.480260e+06 3.448
26 regular 3 69 269 89 3 0.104 faster 1 1.480262e+06 1.480265e+06 3.289
26 regular 3 70 270 88 3 0.532 faster 1 1.480268e+06 1.480272e+06 3.272
26 regular 3 71 271 88 3 0.540 faster 1 1.480274e+06 1.480277e+06 3.392
26 regular 3 72 272 87 3 0.309 faster 1 1.480280e+06 1.480283e+06 3.287
26 regular 3 73 273 87 3 0.454 faster 1 1.480286e+06 1.480289e+06 3.290
26 regular 3 74 274 86 3 0.264 faster 1 1.480291e+06 1.480295e+06 3.282
26 regular 3 75 275 34 3 0.513 faster 0 1.480296e+06 1.480300e+06 3.276
26 regular 3 76 276 33 3 0.515 faster 0 1.480301e+06 1.480305e+06 3.339
26 regular 3 77 277 32 3 0.158 faster 0 1.480306e+06 1.480309e+06 3.373
26 regular 3 78 278 31 3 0.491 faster 0 1.480312e+06 1.480315e+06 3.525
26 regular 3 79 279 30 3 0.571 faster 0 1.480318e+06 1.480321e+06 3.300
26 regular 3 80 280 30 3 0.295 faster 0 1.480322e+06 1.480326e+06 3.422
26 regular 3 81 281 30 3 0.462 faster 0 1.480327e+06 1.480331e+06 3.410
26 regular 3 82 282 90 3 0.228 faster 1 1.480333e+06 1.480337e+06 3.291
26 regular 3 83 283 31 3 0.390 faster 0 1.480338e+06 1.480341e+06 3.243
26 regular 3 84 284 30 3 0.172 faster 0 1.480344e+06 1.480347e+06 3.273
26 regular 3 85 285 90 3 0.125 faster 1 1.480349e+06 1.480352e+06 3.246
26 regular 3 86 286 90 3 0.125 faster 1 1.480355e+06 1.480358e+06 3.272
26 regular 3 87 287 31 3 0.158 faster 0 1.480359e+06 1.480362e+06 3.581
26 regular 3 88 288 90 3 0.256 faster 1 1.480364e+06 1.480367e+06 3.497
26 regular 3 89 289 90 3 0.442 faster 1 1.480370e+06 1.480374e+06 3.530
26 regular 3 90 290 89 3 0.383 faster 1 1.480375e+06 1.480378e+06 3.463
26 regular 3 91 291 89 3 0.285 faster 1 1.480379e+06 1.480383e+06 3.375
26 regular 3 92 292 32 3 0.223 faster 0 1.480384e+06 1.480387e+06 3.348
26 regular 3 93 293 31 3 0.169 faster 0 1.480390e+06 1.480393e+06 3.551
26 regular 3 94 294 30 3 0.585 faster 0 1.480396e+06 1.480399e+06 3.383
26 regular 3 95 295 90 3 0.174 faster 1 1.480400e+06 1.480403e+06 3.316
26 regular 3 96 296 90 3 0.266 faster 1 1.480406e+06 1.480409e+06 3.267
26 regular 3 97 297 89 3 0.544 faster 1 1.480411e+06 1.480414e+06 3.279
26 regular 3 98 298 31 3 0.141 faster 0 1.480417e+06 1.480421e+06 3.320
26 regular 3 99 299 90 3 0.120 faster 1 1.480423e+06 1.480426e+06 3.295
26 regular 3 100 300 31 3 0.109 faster 0 1.480428e+06 1.480432e+06 3.328
26 irregular 4 1 301 90 2 0.479 faster 1 1.480546e+06 1.480548e+06 2.704
26 irregular 4 2 302 30 1.500000e+00 0.160 faster 0 1.480550e+06 1.480552e+06 1.935
26 irregular 4 3 303 90 1 0.383 faster 1 1.480553e+06 1.480554e+06 1.491
26 irregular 4 4 304 89 1.500000e+00 0.272 faster 1 1.480555e+06 1.480557e+06 1.850
26 irregular 4 5 305 31 1.500000e+00 0.419 faster 0 1.480559e+06 1.480561e+06 1.856
26 irregular 4 6 306 90 2 0.308 faster 1 1.480562e+06 1.480564e+06 2.318
26 irregular 4 7 307 31 3 0.403 faster 0 1.480566e+06 1.480569e+06 3.344
26 irregular 4 8 308 90 1.500000e+00 0.208 faster 1 1.480570e+06 1.480572e+06 1.826
26 irregular 4 9 309 90 1.500000e+00 0.345 faster 1 1.480574e+06 1.480575e+06 1.770
26 irregular 4 10 310 31 2.500000e+00 0.412 faster 0 1.480576e+06 1.480579e+06 2.829
26 irregular 4 11 311 90 1 0.318 faster 1 1.480581e+06 1.480582e+06 1.375
26 irregular 4 12 312 90 2 0.520 faster 1 1.480584e+06 1.480586e+06 2.329
26 irregular 4 13 313 89 2.500000e+00 0.116 faster 1 1.480587e+06 1.480590e+06 2.887
26 irregular 4 14 314 31 3 0.412 faster 0 1.480592e+06 1.480596e+06 4.018
26 irregular 4 15 315 30 2 0.445 faster 0 1.480597e+06 1.480600e+06 2.325
26 irregular 4 16 316 30 1.500000e+00 0.593 faster 0 1.480601e+06 1.480603e+06 1.808
26 irregular 4 17 317 90 1 0.538 faster 1 1.480605e+06 1.480606e+06 1.434
26 irregular 4 18 318 31 2.500000e+00 0.374 faster 0 1.480608e+06 1.480611e+06 2.962
26 irregular 4 19 319 30 3 0.230 faster 0 1.480613e+06 1.480616e+06 3.304
26 irregular 4 20 320 30 3 0.357 faster 0 1.480619e+06 1.480622e+06 3.429
26 irregular 4 21 321 30 2.500000e+00 0.167 faster 0 1.480624e+06 1.480627e+06 2.954
26 irregular 4 22 322 30 1.500000e+00 0.522 faster 0 1.480629e+06 1.480631e+06 1.876
26 irregular 4 23 323 30 2 0.386 faster 0 1.480632e+06 1.480635e+06 2.329
26 irregular 4 24 324 90 1.500000e+00 0.434 faster 1 1.480636e+06 1.480638e+06 1.863
26 irregular 4 25 325 30 3 0.557 faster 0 1.480639e+06 1.480642e+06 3.289
26 irregular 4 26 326 30 2 0.460 faster 0 1.480645e+06 1.480648e+06 2.323
26 irregular 4 27 327 90 2.500000e+00 0.585 faster 1 1.480649e+06 1.480652e+06 2.749
26 irregular 4 28 328 31 2 0.249 faster 0 1.480653e+06 1.480656e+06 2.360
26 irregular 4 29 329 90 2.500000e+00 0.435 faster 1 1.480657e+06 1.480660e+06 2.725
26 irregular 4 30 330 90 2.500000e+00 0.548 faster 1 1.480662e+06 1.480664e+06 2.781
26 irregular 4 31 331 89 2.500000e+00 0.590 faster 1 1.480667e+06 1.480670e+06 2.826
26 irregular 4 32 332 31 1 0.510 faster 0 1.480671e+06 1.480673e+06 1.715
26 irregular 4 33 333 90 2 0.383 faster 1 1.480674e+06 1.480677e+06 2.311
26 irregular 4 34 334 31 1.500000e+00 0.331 faster 0 1.480678e+06 1.480680e+06 1.871
26 irregular 4 35 335 30 1 0.110 faster 0 1.480681e+06 1.480683e+06 1.393
26 irregular 4 36 336 90 1.500000e+00 0.137 faster 1 1.480684e+06 1.480685e+06 1.851
26 irregular 4 37 337 30 2.500000e+00 0.506 faster 0 1.480687e+06 1.480690e+06 2.868
26 irregular 4 38 338 90 3 0.277 faster 1 1.480691e+06 1.480694e+06 3.285
26 irregular 4 39 339 31 2.500000e+00 0.294 faster 0 1.480697e+06 1.480700e+06 2.865
26 irregular 4 40 340 90 1.500000e+00 0.583 faster 1 1.480702e+06 1.480703e+06 1.828
26 irregular 4 41 341 30 3 0.324 faster 0 1.480705e+06 1.480708e+06 3.489
26 irregular 4 42 342 30 2.500000e+00 0.154 faster 0 1.480711e+06 1.480714e+06 2.853
26 irregular 4 43 343 90 1.500000e+00 0.409 faster 1 1.480715e+06 1.480717e+06 2.458
26 irregular 4 44 344 31 2 0.518 faster 0 1.480719e+06 1.480721e+06 2.361
26 irregular 4 45 345 30 1 0.246 slower 1 1.480722e+06 1.480724e+06 1.583
26 irregular 4 46 346 30 2.500000e+00 0.531 faster 0 1.480725e+06 1.480728e+06 2.830
26 irregular 4 47 347 30 3 0.487 faster 0 1.480729e+06 1.480732e+06 3.332
26 irregular 4 48 348 90 1 0.406 faster 1 1.480735e+06 1.480736e+06 1.361
26 irregular 4 49 349 31 2 0.461 faster 0 1.480737e+06 1.480740e+06 2.344
26 irregular 4 50 350 30 2.500000e+00 0.512 faster 0 1.480742e+06 1.480745e+06 2.898
26 irregular 4 51 351 30 1.500000e+00 0.232 faster 0 1.480746e+06 1.480748e+06 1.869
26 irregular 4 52 352 90 1 0.242 faster 1 1.480749e+06 1.480751e+06 1.390
26 irregular 4 53 353 90 1.500000e+00 0.531 faster 1 1.480752e+06 1.480754e+06 1.798
26 irregular 4 54 354 89 2.500000e+00 0.459 faster 1 1.480756e+06 1.480759e+06 2.796
26 irregular 4 55 355 31 1 0.204 faster 0 1.480761e+06 1.480762e+06 1.384
26 irregular 4 56 356 30 2.500000e+00 0.534 faster 0 1.480764e+06 1.480766e+06 2.771
26 irregular 4 57 357 90 2 0.357 faster 1 1.480769e+06 1.480771e+06 2.322
26 irregular 4 58 358 89 1 0.291 faster 1 1.480772e+06 1.480774e+06 1.650
26 irregular 4 59 359 31 2.500000e+00 0.496 faster 0 1.480776e+06 1.480778e+06 2.878
26 irregular 4 60 360 30 3 0.131 faster 0 1.480780e+06 1.480783e+06 3.462
26 irregular 4 61 361 30 3 0.218 faster 0 1.480784e+06 1.480787e+06 3.439
26 irregular 4 62 362 30 1 0.148 faster 0 1.480789e+06 1.480791e+06 1.486
26 irregular 4 63 363 90 2.500000e+00 0.593 faster 1 1.480793e+06 1.480795e+06 2.906
26 irregular 4 64 364 89 2 0.237 faster 1 1.480798e+06 1.480800e+06 2.345
26 irregular 4 65 365 89 1.500000e+00 0.562 faster 1 1.480802e+06 1.480804e+06 2.018
26 irregular 4 66 366 32 3 0.547 faster 0 1.480805e+06 1.480809e+06 3.550
26 irregular 4 67 367 89 1 0.409 faster 1 1.480812e+06 1.480813e+06 1.433
26 irregular 4 68 368 31 1 0.373 faster 0 1.480815e+06 1.480816e+06 1.568
26 irregular 4 69 369 90 3 0.420 faster 1 1.480817e+06 1.480821e+06 3.332
26 irregular 4 70 370 31 2 0.287 faster 0 1.480823e+06 1.480825e+06 2.348
26 irregular 4 71 371 90 2 0.438 faster 1 1.480828e+06 1.480830e+06 2.332
26 irregular 4 72 372 90 3 0.443 faster 1 1.480832e+06 1.480835e+06 3.281
26 irregular 4 73 373 89 3 0.369 faster 1 1.480837e+06 1.480840e+06 3.539
26 irregular 4 74 374 31 1 0.390 faster 0 1.480842e+06 1.480843e+06 1.463
26 irregular 4 75 375 90 3 0.270 faster 1 1.480844e+06 1.480848e+06 3.443
26 irregular 4 76 376 31 2 0.179 faster 0 1.480849e+06 1.480851e+06 2.364
26 irregular 4 77 377 30 2 0.421 faster 0 1.480853e+06 1.480856e+06 2.419
26 irregular 4 78 378 30 1 0.274 faster 0 1.480857e+06 1.480859e+06 1.468
26 irregular 4 79 379 30 1.500000e+00 0.496 slower 1 1.480860e+06 1.480862e+06 2.017
26 irregular 4 80 380 90 3 0.311 faster 1 1.480863e+06 1.480867e+06 3.457
26 irregular 4 81 381 89 2 0.424 faster 1 1.480869e+06 1.480872e+06 2.497
26 irregular 4 82 382 89 3 0.546 faster 1 1.480874e+06 1.480877e+06 3.273
26 irregular 4 83 383 32 1 0.167 faster 0 1.480880e+06 1.480881e+06 1.486
26 irregular 4 84 384 89 1 0.161 slower 0 1.480882e+06 1.480884e+06 1.400
26 irregular 4 85 385 30 1.500000e+00 0.291 faster 0 1.480885e+06 1.480887e+06 1.835
26 irregular 4 86 386 90 3 0.117 faster 1 1.480888e+06 1.480891e+06 3.392
26 irregular 4 87 387 90 1 0.483 faster 1 1.480893e+06 1.480895e+06 1.454
26 irregular 4 88 388 89 2.500000e+00 0.187 faster 1 1.480896e+06 1.480899e+06 2.810
26 irregular 4 89 389 89 1 0.374 faster 1 1.480901e+06 1.480902e+06 1.427
26 irregular 4 90 390 88 3 0.270 faster 1 1.480904e+06 1.480907e+06 3.284
26 irregular 4 91 391 88 2.500000e+00 0.305 faster 1 1.480909e+06 1.480912e+06 2.750
26 irregular 4 92 392 33 1.500000e+00 0.166 faster 0 1.480913e+06 1.480915e+06 1.800
26 irregular 4 93 393 88 2 0.170 faster 1 1.480916e+06 1.480919e+06 2.228
26 irregular 4 94 394 32 2 0.532 faster 0 1.480920e+06 1.480923e+06 2.262
26 irregular 4 95 395 89 2.500000e+00 0.318 faster 1 1.480924e+06 1.480927e+06 3.000
26 irregular 4 96 396 88 2 0.261 faster 1 1.480928e+06 1.480930e+06 2.402
26 irregular 4 97 397 88 3 0.450 faster 1 1.480932e+06 1.480935e+06 3.421
26 irregular 4 98 398 33 1.500000e+00 0.498 faster 0 1.480938e+06 1.480939e+06 1.806
26 irregular 4 99 399 88 1.500000e+00 0.174 faster 1 1.480941e+06 1.480942e+06 1.887
26 irregular 4 100 400 32 1 0.381 faster 0 1.480944e+06 1.480945e+06 1.565
26 regular 5 1 401 89 1 0.286 slower 0 1.480982e+06 1.480984e+06 1.717
26 regular 5 2 402 90 1 0.355 faster 1 1.480985e+06 1.480987e+06 1.548
26 regular 5 3 403 31 1 0.542 faster 0 1.480988e+06 1.480990e+06 1.455
26 regular 5 4 404 30 1 0.578 faster 0 1.480991e+06 1.480992e+06 1.455
26 regular 5 5 405 90 1 0.585 faster 1 1.480994e+06 1.480995e+06 1.501
26 regular 5 6 406 30 1 0.504 faster 0 1.480997e+06 1.480998e+06 1.344
26 regular 5 7 407 30 1 0.201 faster 0 1.480999e+06 1.481000e+06 1.404
26 regular 5 8 408 90 1 0.183 faster 1 1.481001e+06 1.481002e+06 1.367
26 regular 5 9 409 89 1 0.211 faster 1 1.481003e+06 1.481005e+06 1.491
26 regular 5 10 410 89 1 0.259 faster 1 1.481006e+06 1.481007e+06 1.543
26 regular 5 11 411 32 1 0.520 faster 0 1.481008e+06 1.481010e+06 1.393
26 regular 5 12 412 31 1 0.267 faster 0 1.481011e+06 1.481012e+06 1.482
26 regular 5 13 413 90 1 0.334 faster 1 1.481013e+06 1.481014e+06 1.319
26 regular 5 14 414 30 1 0.572 faster 0 1.481019e+06 1.481020e+06 1.557
26 regular 5 15 415 90 1 0.342 faster 1 1.481021e+06 1.481023e+06 1.305
26 regular 5 16 416 89 1 0.170 faster 1 1.481024e+06 1.481025e+06 1.331
26 regular 5 17 417 89 1 0.267 faster 1 1.481026e+06 1.481027e+06 1.332
26 regular 5 18 418 32 1 0.503 faster 0 1.481029e+06 1.481030e+06 1.352
26 regular 5 19 419 89 1 0.489 faster 1 1.481032e+06 1.481033e+06 1.351
26 regular 5 20 420 31 1 0.560 none 2 1.481035e+06 1.481039e+06 3.999
26 regular 5 21 421 89 1 0.411 faster 1 1.481040e+06 1.481042e+06 2.516
26 regular 5 22 422 32 1 0.428 faster 0 1.481043e+06 1.481045e+06 1.519
26 regular 5 23 423 31 1 0.226 faster 0 1.481046e+06 1.481047e+06 1.545
26 regular 5 24 424 90 1 0.270 faster 1 1.481048e+06 1.481050e+06 1.544
26 regular 5 25 425 30 1 0.396 slower 1 1.481051e+06 1.481053e+06 1.624
26 regular 5 26 426 89 1 0.311 faster 1 1.481053e+06 1.481055e+06 1.417
26 regular 5 27 427 89 1 0.181 faster 1 1.481056e+06 1.481058e+06 1.441
26 regular 5 28 428 32 1 0.381 faster 0 1.481059e+06 1.481060e+06 1.462
26 regular 5 29 429 31 1 0.368 faster 0 1.481062e+06 1.481064e+06 1.533
26 regular 5 30 430 30 1 0.238 faster 0 1.481066e+06 1.481067e+06 1.378
26 regular 5 31 431 90 1 0.567 faster 1 1.481069e+06 1.481071e+06 2.037
26 regular 5 32 432 30 1 0.111 faster 0 1.481072e+06 1.481074e+06 1.366
26 regular 5 33 433 30 1 0.488 faster 0 1.481076e+06 1.481077e+06 1.418
26 regular 5 34 434 30 1 0.533 slower 1 1.481079e+06 1.481080e+06 1.542
26 regular 5 35 435 31 1 0.244 slower 1 1.481081e+06 1.481083e+06 1.673
26 regular 5 36 436 31 1 0.241 faster 0 1.481084e+06 1.481086e+06 1.533
26 regular 5 37 437 30 1 0.170 faster 0 1.481087e+06 1.481089e+06 1.470
26 regular 5 38 438 30 1 0.369 faster 0 1.481090e+06 1.481092e+06 1.479
26 regular 5 39 439 30 1 0.114 none 2 1.481093e+06 1.481097e+06 3.999
26 regular 5 40 440 90 1 0.453 faster 1 1.481098e+06 1.481100e+06 1.769
26 regular 5 41 441 89 1 0.524 faster 1 1.481101e+06 1.481102e+06 1.490
26 regular 5 42 442 89 1 0.505 faster 1 1.481104e+06 1.481105e+06 1.499
26 regular 5 43 443 32 1 0.448 faster 0 1.481107e+06 1.481108e+06 1.466
26 regular 5 44 444 89 1 0.397 faster 1 1.481110e+06 1.481112e+06 1.484
26 regular 5 45 445 31 1 0.161 faster 0 1.481113e+06 1.481114e+06 1.371
26 regular 5 46 446 30 1 0.115 faster 0 1.481116e+06 1.481117e+06 1.460
26 regular 5 47 447 90 1 0.189 faster 1 1.481118e+06 1.481120e+06 1.355
26 regular 5 48 448 31 1 0.483 faster 0 1.481121e+06 1.481123e+06 1.348
26 regular 5 49 449 90 1 0.579 faster 1 1.481125e+06 1.481126e+06 1.316
26 regular 5 50 450 90 1 0.471 faster 1 1.481128e+06 1.481130e+06 1.293
26 regular 5 51 451 89 1 0.567 faster 1 1.481131e+06 1.481132e+06 1.318
26 regular 5 52 452 31 1 0.474 faster 0 1.481135e+06 1.481136e+06 1.369
26 regular 5 53 453 30 1 0.160 slower 1 1.481137e+06 1.481138e+06 1.303
26 regular 5 54 454 89 1 0.473 slower 0 1.481140e+06 1.481141e+06 1.558
26 regular 5 55 455 30 1 0.466 faster 0 1.481143e+06 1.481144e+06 1.498
26 regular 5 56 456 90 1 0.129 faster 1 1.481145e+06 1.481146e+06 1.549
26 regular 5 57 457 30 1 0.433 faster 0 1.481148e+06 1.481149e+06 1.469
26 regular 5 58 458 30 1 0.336 faster 0 1.481151e+06 1.481152e+06 1.387
26 regular 5 59 459 90 1 0.417 faster 1 1.481154e+06 1.481155e+06 1.387
26 regular 5 60 460 89 1 0.210 faster 1 1.481157e+06 1.481159e+06 1.388
26 regular 5 61 461 89 1 0.102 faster 1 1.481160e+06 1.481162e+06 1.336
26 regular 5 62 462 88 1 0.249 faster 1 1.481163e+06 1.481165e+06 1.322
26 regular 5 63 463 88 1 0.190 faster 1 1.481167e+06 1.481168e+06 1.414
26 regular 5 64 464 33 1 0.246 faster 0 1.481169e+06 1.481172e+06 2.995
26 regular 5 65 465 88 1 0.321 faster 1 1.481173e+06 1.481174e+06 1.415
26 regular 5 66 466 88 1 0.283 faster 1 1.481176e+06 1.481177e+06 1.519
26 regular 5 67 467 87 1 0.271 faster 1 1.481179e+06 1.481180e+06 1.377
26 regular 5 68 468 87 1 0.141 faster 1 1.481181e+06 1.481183e+06 1.351
26 regular 5 69 469 86 1 0.116 faster 1 1.481184e+06 1.481185e+06 1.448
26 regular 5 70 470 34 1 0.423 faster 0 1.481187e+06 1.481188e+06 1.419
26 regular 5 71 471 33 1 0.551 faster 0 1.481190e+06 1.481192e+06 1.439
26 regular 5 72 472 88 1 0.324 faster 1 1.481193e+06 1.481195e+06 1.511
26 regular 5 73 473 33 1 0.449 faster 0 1.481196e+06 1.481198e+06 1.468
26 regular 5 74 474 88 1 0.314 faster 1 1.481200e+06 1.481202e+06 1.354
26 regular 5 75 475 32 1 0.579 faster 0 1.481203e+06 1.481205e+06 1.382
26 regular 5 76 476 89 1 0.526 faster 1 1.481207e+06 1.481208e+06 1.315
26 regular 5 77 477 32 1 0.435 faster 0 1.481210e+06 1.481212e+06 1.766
26 regular 5 78 478 89 1 0.297 faster 1 1.481213e+06 1.481214e+06 1.360
26 regular 5 79 479 31 1 0.574 faster 0 1.481216e+06 1.481217e+06 1.289
26 regular 5 80 480 30 1 0.278 slower 1 1.481218e+06 1.481220e+06 1.284
26 regular 5 81 481 89 1 0.459 faster 1 1.481222e+06 1.481224e+06 1.443
26 regular 5 82 482 31 1 0.505 faster 0 1.481225e+06 1.481227e+06 1.423
26 regular 5 83 483 90 1 0.551 faster 1 1.481229e+06 1.481230e+06 1.490
26 regular 5 84 484 31 1 0.521 faster 0 1.481232e+06 1.481234e+06 1.431
26 regular 5 85 485 30 1 0.231 slower 1 1.481235e+06 1.481237e+06 1.454
26 regular 5 86 486 90 1 0.382 faster 1 1.481239e+06 1.481240e+06 1.307
26 regular 5 87 487 31 1 0.597 faster 0 1.481242e+06 1.481243e+06 1.385
26 regular 5 88 488 30 1 0.445 faster 0 1.481245e+06 1.481246e+06 1.414
26 regular 5 89 489 90 1 0.123 faster 1 1.481248e+06 1.481249e+06 1.495
26 regular 5 90 490 30 1 0.437 faster 0 1.481250e+06 1.481252e+06 1.499
26 regular 5 91 491 90 1 0.435 faster 1 1.481253e+06 1.481255e+06 1.422
26 regular 5 92 492 89 1 0.228 faster 1 1.481256e+06 1.481258e+06 1.359
26 regular 5 93 493 89 1 0.316 slower 0 1.481259e+06 1.481260e+06 1.281
26 regular 5 94 494 30 1 0.494 faster 0 1.481262e+06 1.481264e+06 1.424
26 regular 5 95 495 30 1 0.160 faster 0 1.481265e+06 1.481267e+06 1.510
26 regular 5 96 496 30 1 0.424 faster 0 1.481269e+06 1.481270e+06 1.492
26 regular 5 97 497 90 1 0.383 faster 1 1.481272e+06 1.481273e+06 1.350
26 regular 5 98 498 89 1 0.557 faster 1 1.481275e+06 1.481277e+06 1.592
26 regular 5 99 499 89 1 0.442 faster 1 1.481279e+06 1.481280e+06 1.362
26 regular 5 100 500 32 1 0.353 slower 1 1.481281e+06 1.481283e+06 1.328
26 irregular 6 1 501 77 1 0.580 faster 1 1.547742e+06 1.547744e+06 1.462
26 irregular 6 2 502 77 2 0.475 faster 1 1.547745e+06 1.547747e+06 2.411
26 irregular 6 3 503 75 1 0.504 faster 1 1.547749e+06 1.547750e+06 1.492
26 irregular 6 4 504 45 3 0.275 slower 1 1.547751e+06 1.547755e+06 3.553
26 irregular 6 5 505 47 1 0.323 slower 1 1.547756e+06 1.547758e+06 1.527
26 irregular 6 6 506 47 2 0.271 faster 0 1.547759e+06 1.547761e+06 2.693
26 irregular 6 7 507 45 1 0.426 slower 1 1.547763e+06 1.547765e+06 1.671
26 irregular 6 8 508 47 2 0.522 faster 0 1.547766e+06 1.547768e+06 2.478
26 irregular 6 9 509 45 1.500000e+00 0.377 slower 1 1.547770e+06 1.547772e+06 2.081
26 irregular 6 10 510 75 2 0.274 faster 1 1.547773e+06 1.547775e+06 2.345
26 irregular 6 11 511 47 2 0.251 slower 1 1.547777e+06 1.547779e+06 2.592
26 irregular 6 12 512 73 3 0.400 faster 1 1.547780e+06 1.547784e+06 3.563
26 irregular 6 13 513 72 3 0.339 faster 1 1.547785e+06 1.547789e+06 3.644
26 irregular 6 14 514 72 3 0.511 faster 1 1.547790e+06 1.547794e+06 3.590
26 irregular 6 15 515 71 1.500000e+00 0.581 faster 1 1.547795e+06 1.547798e+06 2.124
26 irregular 6 16 516 71 1.500000e+00 0.524 faster 1 1.547799e+06 1.547801e+06 1.825
26 irregular 6 17 517 70 2.500000e+00 0.168 faster 1 1.547803e+06 1.547806e+06 3.180
26 irregular 6 18 518 50 3 0.146 slower 1 1.547808e+06 1.547812e+06 3.989
26 irregular 6 19 519 69 2.500000e+00 0.434 faster 1 1.547813e+06 1.547816e+06 3.024
26 irregular 6 20 520 51 2.500000e+00 0.267 faster 0 1.547818e+06 1.547820e+06 2.946
26 irregular 6 21 521 70 2.500000e+00 0.217 faster 1 1.547822e+06 1.547825e+06 3.124
26 irregular 6 22 522 69 2 0.198 faster 1 1.547826e+06 1.547829e+06 2.610
26 irregular 6 23 523 51 1.500000e+00 0.575 faster 0 1.547831e+06 1.547833e+06 1.975
26 irregular 6 24 524 70 1.500000e+00 0.207 slower 0 1.547835e+06 1.547837e+06 1.920
26 irregular 6 25 525 49 3 0.106 faster 0 1.547838e+06 1.547842e+06 3.630
26 irregular 6 26 526 72 1 0.146 faster 1 1.547843e+06 1.547845e+06 2.042
26 irregular 6 27 527 49 2 0.584 slower 1 1.547846e+06 1.547849e+06 2.810
26 irregular 6 28 528 49 2.500000e+00 0.316 slower 1 1.547850e+06 1.547853e+06 3.210
26 irregular 6 29 529 50 1.500000e+00 0.391 faster 0 1.547856e+06 1.547858e+06 2.137
26 irregular 6 30 530 49 3 0.119 slower 1 1.547859e+06 1.547863e+06 3.765
26 irregular 6 31 531 71 2 0.596 faster 1 1.547864e+06 1.547867e+06 2.781
26 irregular 6 32 532 50 2.500000e+00 0.441 faster 0 1.547869e+06 1.547872e+06 3.073
26 irregular 6 33 533 71 3 0.161 faster 1 1.547873e+06 1.547877e+06 3.661
26 irregular 6 34 534 71 1.500000e+00 0.515 faster 1 1.547879e+06 1.547882e+06 2.368
26 irregular 6 35 535 70 2.500000e+00 0.300 faster 1 1.547884e+06 1.547887e+06 2.898
26 irregular 6 36 536 50 1 0.595 faster 0 1.547889e+06 1.547891e+06 1.671
26 irregular 6 37 537 71 1.500000e+00 0.566 faster 1 1.547892e+06 1.547894e+06 2.060
26 irregular 6 38 538 70 2 0.344 faster 1 1.547896e+06 1.547899e+06 2.511
26 irregular 6 39 539 50 2.500000e+00 0.585 faster 0 1.547900e+06 1.547903e+06 2.986
26 irregular 6 40 540 71 1.500000e+00 0.267 faster 1 1.547905e+06 1.547907e+06 2.401
26 irregular 6 41 541 70 1 0.241 faster 1 1.547908e+06 1.547910e+06 1.706
26 irregular 6 42 542 50 3 0.505 slower 1 1.547911e+06 1.547915e+06 3.709
26 irregular 6 43 543 69 2.500000e+00 0.219 faster 1 1.547917e+06 1.547920e+06 3.351
26 irregular 6 44 544 51 2 0.297 faster 0 1.547923e+06 1.547926e+06 2.674
26 irregular 6 45 545 50 1.500000e+00 0.139 slower 1 1.547928e+06 1.547930e+06 2.023
26 irregular 6 46 546 69 1.500000e+00 0.186 faster 1 1.547931e+06 1.547933e+06 2.138
26 irregular 6 47 547 69 2 0.118 faster 1 1.547934e+06 1.547936e+06 2.454
26 irregular 6 48 548 52 1 0.326 faster 0 1.547938e+06 1.547939e+06 1.614
26 irregular 6 49 549 51 2 0.336 slower 1 1.547941e+06 1.547943e+06 2.440
26 irregular 6 50 550 51 2.500000e+00 0.124 faster 0 1.547945e+06 1.547948e+06 2.941
26 irregular 6 51 551 50 2.500000e+00 0.161 slower 1 1.547950e+06 1.547953e+06 3.277
26 irregular 6 52 552 69 3 0.287 faster 1 1.547955e+06 1.547959e+06 3.581
26 irregular 6 53 553 69 1.500000e+00 0.584 faster 1 1.547961e+06 1.547963e+06 2.054
26 irregular 6 54 554 52 2 0.401 slower 1 1.547965e+06 1.547967e+06 2.756
26 irregular 6 55 555 68 1 0.484 slower 0 1.547969e+06 1.547971e+06 1.806
26 irregular 6 56 556 51 3 0.161 slower 1 1.547972e+06 1.547976e+06 3.722
26 irregular 6 57 557 52 1.500000e+00 0.131 faster 0 1.547978e+06 1.547980e+06 2.115
26 irregular 6 58 558 69 2.500000e+00 0.580 faster 1 1.547982e+06 1.547985e+06 3.027
26 irregular 6 59 559 69 3 0.381 faster 1 1.547987e+06 1.547990e+06 3.568
26 irregular 6 60 560 52 2 0.311 slower 1 1.547992e+06 1.547995e+06 2.651
26 irregular 6 61 561 52 2.500000e+00 0.146 faster 0 1.547997e+06 1.548000e+06 3.395
26 irregular 6 62 562 69 2 0.525 slower 0 1.548002e+06 1.548004e+06 2.856
26 irregular 6 63 563 70 1 0.239 faster 1 1.548006e+06 1.548008e+06 1.592
26 irregular 6 64 564 69 1 0.576 slower 0 1.548010e+06 1.548011e+06 1.597
26 irregular 6 65 565 50 1 0.117 slower 1 1.548013e+06 1.548014e+06 1.626
26 irregular 6 66 566 50 1.500000e+00 0.533 slower 1 1.548016e+06 1.548018e+06 2.040
26 irregular 6 67 567 51 2 0.517 slower 1 1.548019e+06 1.548022e+06 2.490
26 irregular 6 68 568 69 2.500000e+00 0.263 faster 1 1.548024e+06 1.548027e+06 3.257
26 irregular 6 69 569 52 1.500000e+00 0.209 faster 0 1.548029e+06 1.548031e+06 2.473
26 irregular 6 70 570 51 1 0.526 slower 1 1.548033e+06 1.548035e+06 1.942
26 irregular 6 71 571 51 1 0.318 slower 1 1.548037e+06 1.548038e+06 1.733
26 irregular 6 72 572 68 1.500000e+00 0.217 faster 1 1.548039e+06 1.548041e+06 2.041
26 irregular 6 73 573 68 2.500000e+00 0.389 faster 1 1.548043e+06 1.548046e+06 3.248
26 irregular 6 74 574 67 3 0.292 faster 1 1.548047e+06 1.548051e+06 3.701
26 irregular 6 75 575 53 3 0.600 faster 0 1.548052e+06 1.548056e+06 3.753
26 irregular 6 76 576 52 1.500000e+00 0.227 slower 1 1.548057e+06 1.548060e+06 2.290
26 irregular 6 77 577 53 3 0.439 faster 0 1.548061e+06 1.548065e+06 3.580
26 irregular 6 78 578 52 2.500000e+00 0.358 faster 0 1.548067e+06 1.548070e+06 3.050
26 irregular 6 79 579 51 2.500000e+00 0.573 slower 1 1.548073e+06 1.548076e+06 3.279
26 irregular 6 80 580 51 1 0.202 slower 1 1.548077e+06 1.548079e+06 1.715
26 irregular 6 81 581 68 2 0.450 faster 1 1.548080e+06 1.548082e+06 2.356
26 irregular 6 82 582 68 2 0.326 slower 0 1.548084e+06 1.548086e+06 2.482
26 irregular 6 83 583 69 1 0.368 faster 1 1.548088e+06 1.548090e+06 1.646
26 irregular 6 84 584 68 2.500000e+00 0.258 faster 1 1.548092e+06 1.548095e+06 2.967
26 irregular 6 85 585 52 1.500000e+00 0.204 faster 0 1.548097e+06 1.548099e+06 2.143
26 irregular 6 86 586 51 2.500000e+00 0.209 faster 0 1.548101e+06 1.548104e+06 3.321
26 irregular 6 87 587 50 1.500000e+00 0.471 faster 0 1.548107e+06 1.548109e+06 2.047
26 irregular 6 88 588 71 3 0.150 faster 1 1.548110e+06 1.548113e+06 3.666
26 irregular 6 89 589 50 3 0.262 faster 0 1.548115e+06 1.548119e+06 3.586
26 irregular 6 90 590 71 2.500000e+00 0.321 faster 1 1.548121e+06 1.548124e+06 3.243
26 irregular 6 91 591 49 2 0.271 slower 1 1.548126e+06 1.548128e+06 2.397
26 irregular 6 92 592 50 1 0.442 slower 1 1.548130e+06 1.548132e+06 1.478
26 irregular 6 93 593 70 1 0.413 slower 0 1.548133e+06 1.548134e+06 1.504
26 irregular 6 94 594 71 2 0.474 faster 1 1.548135e+06 1.548138e+06 2.512
26 irregular 6 95 595 70 3 0.553 faster 1 1.548140e+06 1.548144e+06 3.587
26 irregular 6 96 596 70 3 0.586 none 2 1.548145e+06 1.548151e+06 6.000
26 irregular 6 97 597 70 1 0.373 faster 1 1.548152e+06 1.548154e+06 1.694
26 irregular 6 98 598 51 3 0.384 slower 1 1.548155e+06 1.548158e+06 3.446
26 irregular 6 99 599 51 1 0.139 slower 1 1.548160e+06 1.548161e+06 1.591
26 irregular 6 100 600 68 1.500000e+00 0.373 faster 1 1.548162e+06 1.548165e+06 2.051
26 regular 7 1 601 68 2 0.568 faster 1 1.548455e+06 1.548457e+06 2.762
26 regular 7 2 602 53 2 0.338 faster 0 1.548459e+06 1.548461e+06 2.547
26 regular 7 3 603 68 2 0.245 faster 1 1.548462e+06 1.548465e+06 2.487
26 regular 7 4 604 68 2 0.143 faster 1 1.548465e+06 1.548468e+06 2.442
26 regular 7 5 605 67 2 0.477 faster 1 1.548469e+06 1.548471e+06 2.345
26 regular 7 6 606 53 2 0.268 faster 0 1.548472e+06 1.548475e+06 2.419
26 regular 7 7 607 68 2 0.436 faster 1 1.548476e+06 1.548478e+06 2.313
26 regular 7 8 608 67 2 0.272 faster 1 1.548479e+06 1.548481e+06 2.407
26 regular 7 9 609 53 2 0.172 faster 0 1.548482e+06 1.548485e+06 2.422
26 regular 7 10 610 68 2 0.251 faster 1 1.548486e+06 1.548488e+06 2.359
26 regular 7 11 611 67 2 0.108 faster 1 1.548489e+06 1.548491e+06 2.274
26 regular 7 12 612 53 2 0.335 faster 0 1.548492e+06 1.548494e+06 2.283
26 regular 7 13 613 68 2 0.296 faster 1 1.548495e+06 1.548497e+06 2.256
26 regular 7 14 614 53 2 0.402 faster 0 1.548498e+06 1.548501e+06 2.279
26 regular 7 15 615 52 2 0.363 faster 0 1.548502e+06 1.548504e+06 2.282
26 regular 7 16 616 69 2 0.302 faster 1 1.548505e+06 1.548507e+06 2.262
26 regular 7 17 617 51 2 0.119 faster 0 1.548508e+06 1.548510e+06 2.238
26 regular 7 18 618 50 2 0.156 faster 0 1.548511e+06 1.548513e+06 2.259
26 regular 7 19 619 71 2 0.292 faster 1 1.548514e+06 1.548517e+06 2.385
26 regular 7 20 620 50 2 0.274 faster 0 1.548517e+06 1.548520e+06 2.272
26 regular 7 21 621 49 2 0.496 faster 0 1.548521e+06 1.548523e+06 2.277
26 regular 7 22 622 48 2 0.321 faster 0 1.548524e+06 1.548526e+06 2.282
26 regular 7 23 623 47 2 0.246 faster 0 1.548527e+06 1.548530e+06 2.276
26 regular 7 24 624 74 2 0.512 faster 1 1.548531e+06 1.548533e+06 2.287
26 regular 7 25 625 46 2 0.448 faster 0 1.548534e+06 1.548536e+06 2.291
26 regular 7 26 626 45 2 0.126 faster 0 1.548537e+06 1.548539e+06 2.304
26 regular 7 27 627 76 2 0.533 faster 1 1.548541e+06 1.548543e+06 2.624
26 regular 7 28 628 45 2 0.466 slower 1 1.548545e+06 1.548547e+06 2.814
26 regular 7 29 629 75 2 0.480 faster 1 1.548549e+06 1.548551e+06 2.468
26 regular 7 30 630 46 2 0.369 slower 1 1.548552e+06 1.548555e+06 2.535
26 regular 7 31 631 74 2 0.426 faster 1 1.548556e+06 1.548558e+06 2.560
26 regular 7 32 632 73 2 0.496 faster 1 1.548559e+06 1.548562e+06 2.476
26 regular 7 33 633 47 2 0.562 slower 1 1.548563e+06 1.548566e+06 2.635
26 regular 7 34 634 72 2 0.553 faster 1 1.548568e+06 1.548570e+06 2.546
26 regular 7 35 635 48 2 0.514 faster 0 1.548572e+06 1.548574e+06 2.408
26 regular 7 36 636 47 2 0.589 slower 1 1.548576e+06 1.548578e+06 2.541
26 regular 7 37 637 72 2 0.447 faster 1 1.548580e+06 1.548582e+06 2.437
26 regular 7 38 638 48 2 0.582 slower 1 1.548584e+06 1.548587e+06 2.567
26 regular 7 39 639 49 2 0.459 slower 1 1.548588e+06 1.548590e+06 2.491
26 regular 7 40 640 49 2 0.501 faster 0 1.548592e+06 1.548594e+06 2.442
26 regular 7 41 641 72 2 0.416 faster 1 1.548596e+06 1.548599e+06 2.407
26 regular 7 42 642 71 2 0.273 faster 1 1.548600e+06 1.548602e+06 2.545
26 regular 7 43 643 71 2 0.346 faster 1 1.548603e+06 1.548605e+06 2.385
26 regular 7 44 644 70 2 0.180 slower 0 1.548606e+06 1.548609e+06 2.627
26 regular 7 45 645 71 2 0.329 faster 1 1.548610e+06 1.548613e+06 2.790
26 regular 7 46 646 49 2 0.187 slower 1 1.548613e+06 1.548616e+06 2.702
26 regular 7 47 647 50 2 0.287 slower 1 1.548617e+06 1.548620e+06 2.554
26 regular 7 48 648 70 2 0.293 faster 1 1.548621e+06 1.548624e+06 2.502
26 regular 7 49 649 69 2 0.406 slower 0 1.548625e+06 1.548628e+06 2.614
26 regular 7 50 650 70 2 0.102 faster 1 1.548630e+06 1.548632e+06 2.583
26 regular 7 51 651 50 2 0.382 slower 1 1.548634e+06 1.548637e+06 2.570
26 regular 7 52 652 69 2 0.276 faster 1 1.548638e+06 1.548640e+06 2.418
26 regular 7 53 653 69 2 0.446 faster 1 1.548642e+06 1.548644e+06 2.373
26 regular 7 54 654 68 2 0.235 faster 1 1.548645e+06 1.548648e+06 2.363
26 regular 7 55 655 68 2 0.238 faster 1 1.548649e+06 1.548651e+06 2.367
26 regular 7 56 656 67 2 0.383 faster 1 1.548654e+06 1.548656e+06 2.672
26 regular 7 57 657 53 2 0.521 faster 0 1.548658e+06 1.548660e+06 2.485
26 regular 7 58 658 68 2 0.487 faster 1 1.548662e+06 1.548664e+06 2.557
26 regular 7 59 659 67 2 0.364 faster 1 1.548666e+06 1.548668e+06 2.427
26 regular 7 60 660 67 2 0.498 faster 1 1.548670e+06 1.548672e+06 2.517
26 regular 7 61 661 54 2 0.521 faster 0 1.548674e+06 1.548676e+06 2.402
26 regular 7 62 662 67 2 0.598 slower 0 1.548678e+06 1.548680e+06 2.413
26 regular 7 63 663 52 2 0.368 faster 0 1.548682e+06 1.548685e+06 2.330
26 regular 7 64 664 51 2 0.418 faster 0 1.548687e+06 1.548689e+06 2.340
26 regular 7 65 665 50 2 0.541 faster 0 1.548691e+06 1.548693e+06 2.688
26 regular 7 66 666 49 2 0.118 slower 1 1.548695e+06 1.548698e+06 2.543
26 regular 7 67 667 71 2 0.438 faster 1 1.548699e+06 1.548702e+06 2.466
26 regular 7 68 668 70 2 0.129 faster 1 1.548703e+06 1.548705e+06 2.467
26 regular 7 69 669 50 2 0.143 faster 0 1.548706e+06 1.548709e+06 2.419
26 regular 7 70 670 49 2 0.177 slower 1 1.548710e+06 1.548714e+06 4.879
26 regular 7 71 671 70 2 0.495 faster 1 1.548716e+06 1.548718e+06 2.369
26 regular 7 72 672 50 2 0.575 faster 0 1.548720e+06 1.548722e+06 2.369
26 regular 7 73 673 49 2 0.349 slower 1 1.548724e+06 1.548727e+06 2.832
26 regular 7 74 674 70 2 0.230 faster 1 1.548729e+06 1.548731e+06 2.727
26 regular 7 75 675 50 2 0.596 slower 1 1.548734e+06 1.548736e+06 2.705
26 regular 7 76 676 51 2 0.102 slower 1 1.548737e+06 1.548740e+06 2.712
26 regular 7 77 677 51 2 0.340 slower 1 1.548741e+06 1.548744e+06 2.695
26 regular 7 78 678 68 2 0.436 slower 0 1.548745e+06 1.548748e+06 2.559
26 regular 7 79 679 69 2 0.296 faster 1 1.548750e+06 1.548753e+06 2.513
26 regular 7 80 680 69 2 0.210 slower 0 1.548755e+06 1.548757e+06 2.579
26 regular 7 81 681 70 2 0.418 faster 1 1.548760e+06 1.548762e+06 2.451
26 regular 7 82 682 69 2 0.430 faster 1 1.548764e+06 1.548767e+06 2.665
26 regular 7 83 683 69 2 0.408 slower 0 1.548768e+06 1.548771e+06 2.645
26 regular 7 84 684 50 2 0.132 faster 0 1.548773e+06 1.548776e+06 2.440
26 regular 7 85 685 71 2 0.496 faster 1 1.548777e+06 1.548780e+06 2.464
26 regular 7 86 686 70 2 0.389 faster 1 1.548782e+06 1.548785e+06 2.537
26 regular 7 87 687 50 2 0.168 faster 0 1.548786e+06 1.548788e+06 2.475
26 regular 7 88 688 49 2 0.597 faster 0 1.548790e+06 1.548793e+06 2.386
26 regular 7 89 689 48 2 0.190 faster 0 1.548794e+06 1.548797e+06 2.511
26 regular 7 90 690 73 2 0.524 faster 1 1.548798e+06 1.548801e+06 2.474
26 regular 7 91 691 72 2 0.485 faster 1 1.548802e+06 1.548804e+06 2.367
26 regular 7 92 692 48 2 0.248 faster 0 1.548805e+06 1.548807e+06 2.391
26 regular 7 93 693 47 2 0.220 slower 1 1.548809e+06 1.548811e+06 2.587
26 regular 7 94 694 48 2 0.113 slower 1 1.548812e+06 1.548814e+06 2.445
26 regular 7 95 695 48 2 0.123 slower 1 1.548815e+06 1.548818e+06 2.469
26 regular 7 96 696 49 2 0.501 slower 1 1.548819e+06 1.548821e+06 2.428
26 regular 7 97 697 71 2 0.217 faster 1 1.548823e+06 1.548825e+06 2.452
26 regular 7 98 698 50 2 0.238 faster 0 1.548826e+06 1.548829e+06 2.340
26 regular 7 99 699 49 2 0.378 faster 0 1.548830e+06 1.548832e+06 2.400
26 regular 7 100 700 48 2 0.130 slower 1 1.548834e+06 1.548837e+06 2.533
26 irregular 8 1 701 48 2.500000e+00 0.196 faster 0 1.549018e+06 1.549022e+06 3.140
26 irregular 8 2 702 47 1 0.519 slower 1 1.549023e+06 1.549025e+06 1.626
26 irregular 8 3 703 72 2 0.346 faster 1 1.549026e+06 1.549028e+06 2.562
26 irregular 8 4 704 72 1 0.579 slower 0 1.549030e+06 1.549032e+06 1.784
26 irregular 8 5 705 47 2 0.111 faster 0 1.549033e+06 1.549035e+06 2.534
26 irregular 8 6 706 74 1 0.584 faster 1 1.549037e+06 1.549038e+06 1.495
26 irregular 8 7 707 73 1.500000e+00 0.379 faster 1 1.549039e+06 1.549041e+06 1.945
26 irregular 8 8 708 73 2 0.123 faster 1 1.549042e+06 1.549044e+06 2.452
26 irregular 8 9 709 72 2.500000e+00 0.397 faster 1 1.549046e+06 1.549048e+06 2.903
26 irregular 8 10 710 72 1.500000e+00 0.527 faster 1 1.549050e+06 1.549052e+06 1.914
26 irregular 8 11 711 71 2.500000e+00 0.179 faster 1 1.549053e+06 1.549056e+06 2.846
26 irregular 8 12 712 71 3 0.335 faster 1 1.549057e+06 1.549061e+06 3.429
26 irregular 8 13 713 50 2.500000e+00 0.274 faster 0 1.549062e+06 1.549064e+06 2.851
26 irregular 8 14 714 49 2 0.231 slower 1 1.549065e+06 1.549068e+06 2.445
26 irregular 8 15 715 71 2.500000e+00 0.420 faster 1 1.549069e+06 1.549072e+06 2.921
26 irregular 8 16 716 50 3 0.341 slower 1 1.549073e+06 1.549076e+06 3.474
26 irregular 8 17 717 70 3 0.507 faster 1 1.549079e+06 1.549082e+06 3.480
26 irregular 8 18 718 69 1.500000e+00 0.148 faster 1 1.549083e+06 1.549085e+06 1.882
26 irregular 8 19 719 51 1 0.258 faster 0 1.549086e+06 1.549087e+06 1.532
26 irregular 8 20 720 70 3 0.107 faster 1 1.549088e+06 1.549092e+06 3.551
26 irregular 8 21 721 69 3 0.276 slower 0 1.549092e+06 1.549096e+06 3.386
26 irregular 8 22 722 70 2 0.136 faster 1 1.549097e+06 1.549100e+06 2.448
26 irregular 8 23 723 50 2 0.450 faster 0 1.549101e+06 1.549103e+06 2.396
26 irregular 8 24 724 49 1 0.290 faster 0 1.549104e+06 1.549106e+06 1.429
26 irregular 8 25 725 48 1 0.111 faster 0 1.549107e+06 1.549108e+06 1.479
26 irregular 8 26 726 73 1 0.532 faster 1 1.549111e+06 1.549112e+06 1.546
26 irregular 8 27 727 48 1.500000e+00 0.303 faster 0 1.549113e+06 1.549115e+06 2.048
26 irregular 8 28 728 47 1.500000e+00 0.393 slower 1 1.549117e+06 1.549119e+06 1.884
26 irregular 8 29 729 73 2 0.117 faster 1 1.549120e+06 1.549123e+06 2.482
26 irregular 8 30 730 72 1.500000e+00 0.167 faster 1 1.549124e+06 1.549126e+06 1.956
26 irregular 8 31 731 48 1.500000e+00 0.435 faster 0 1.549127e+06 1.549129e+06 1.940
26 irregular 8 32 732 47 3 0.429 faster 0 1.549130e+06 1.549134e+06 3.422
26 irregular 8 33 733 46 1 0.261 faster 0 1.549135e+06 1.549137e+06 1.545
26 irregular 8 34 734 75 1 0.278 faster 1 1.549138e+06 1.549139e+06 1.513
26 irregular 8 35 735 74 2.500000e+00 0.185 faster 1 1.549140e+06 1.549143e+06 2.971
26 irregular 8 36 736 46 3 0.270 faster 0 1.549144e+06 1.549148e+06 3.437
26 irregular 8 37 737 75 2.500000e+00 0.309 faster 1 1.549149e+06 1.549152e+06 2.961
26 irregular 8 38 738 74 1 0.470 faster 1 1.549153e+06 1.549155e+06 1.697
26 irregular 8 39 739 46 2 0.129 faster 0 1.549155e+06 1.549158e+06 2.454
26 irregular 8 40 740 75 3 0.111 faster 1 1.549159e+06 1.549162e+06 3.435
26 irregular 8 41 741 46 3 0.379 slower 1 1.549164e+06 1.549167e+06 3.511
26 irregular 8 42 742 74 2 0.547 faster 1 1.549168e+06 1.549171e+06 2.530
26 irregular 8 43 743 73 1 0.451 slower 0 1.549172e+06 1.549174e+06 1.486
26 irregular 8 44 744 46 1 0.175 slower 1 1.549174e+06 1.549176e+06 1.590
26 irregular 8 45 745 74 2.500000e+00 0.497 faster 1 1.549177e+06 1.549180e+06 3.098
26 irregular 8 46 746 47 1.500000e+00 0.141 faster 0 1.549181e+06 1.549183e+06 2.068
26 irregular 8 47 747 46 1.500000e+00 0.429 slower 1 1.549184e+06 1.549186e+06 1.903
26 irregular 8 48 748 46 2 0.147 slower 1 1.549187e+06 1.549190e+06 2.788
26 irregular 8 49 749 73 2.500000e+00 0.364 slower 0 1.549192e+06 1.549195e+06 2.881
26 irregular 8 50 750 46 2 0.241 slower 1 1.549196e+06 1.549199e+06 2.379
26 irregular 8 51 751 46 1 0.190 slower 1 1.549201e+06 1.549202e+06 1.657
26 irregular 8 52 752 73 1.500000e+00 0.575 faster 1 1.549204e+06 1.549206e+06 2.034
26 irregular 8 53 753 73 1.500000e+00 0.113 slower 0 1.549206e+06 1.549208e+06 1.806
26 irregular 8 54 754 46 2.500000e+00 0.204 faster 0 1.549209e+06 1.549212e+06 2.974
26 irregular 8 55 755 75 2 0.286 faster 1 1.549214e+06 1.549217e+06 2.578
26 irregular 8 56 756 74 1.500000e+00 0.210 faster 1 1.549219e+06 1.549221e+06 2.413
26 irregular 8 57 757 74 3 0.495 faster 1 1.549223e+06 1.549227e+06 3.464
26 irregular 8 58 758 47 2 0.228 faster 0 1.549228e+06 1.549231e+06 2.391
26 irregular 8 59 759 74 3 0.512 faster 1 1.549234e+06 1.549238e+06 3.802
26 irregular 8 60 760 46 3 0.260 slower 1 1.549239e+06 1.549243e+06 3.624
26 irregular 8 61 761 73 3 0.393 slower 0 1.549245e+06 1.549248e+06 3.346
26 irregular 8 62 762 46 2.500000e+00 0.547 faster 0 1.549251e+06 1.549254e+06 3.107
26 irregular 8 63 763 45 1.500000e+00 0.504 slower 1 1.549256e+06 1.549258e+06 1.972
26 irregular 8 64 764 75 1.500000e+00 0.389 slower 0 1.549259e+06 1.549261e+06 2.009
26 irregular 8 65 765 76 2.500000e+00 0.500 faster 1 1.549263e+06 1.549266e+06 3.080
26 irregular 8 66 766 45 1 0.463 slower 1 1.549268e+06 1.549269e+06 1.686
26 irregular 8 67 767 45 1.500000e+00 0.581 slower 1 1.549271e+06 1.549273e+06 2.100
26 irregular 8 68 768 46 2.500000e+00 0.593 slower 1 1.549275e+06 1.549278e+06 3.112
26 irregular 8 69 769 46 3 0.318 slower 1 1.549281e+06 1.549284e+06 3.605
26 irregular 8 70 770 47 2.500000e+00 0.233 slower 1 1.549286e+06 1.549289e+06 2.813
26 irregular 8 71 771 47 1.500000e+00 0.324 slower 1 1.549290e+06 1.549293e+06 2.166
26 irregular 8 72 772 72 1.500000e+00 0.545 slower 0 1.549294e+06 1.549296e+06 2.151
26 irregular 8 73 773 73 2.500000e+00 0.228 slower 0 1.549298e+06 1.549301e+06 3.158
26 irregular 8 74 774 46 1.500000e+00 0.211 slower 1 1.549303e+06 1.549305e+06 2.051
26 irregular 8 75 775 46 3 0.279 slower 1 1.549306e+06 1.549310e+06 3.678
26 irregular 8 76 776 73 2 0.142 faster 1 1.549312e+06 1.549315e+06 2.509
26 irregular 8 77 777 47 1.500000e+00 0.528 slower 1 1.549317e+06 1.549319e+06 2.115
26 irregular 8 78 778 48 2 0.413 slower 1 1.549321e+06 1.549323e+06 2.618
26 irregular 8 79 779 48 2.500000e+00 0.517 slower 1 1.549325e+06 1.549328e+06 3.151
26 irregular 8 80 780 71 2 0.404 slower 0 1.549330e+06 1.549332e+06 2.564
26 irregular 8 81 781 48 2 0.325 faster 0 1.549334e+06 1.549336e+06 2.551
26 irregular 8 82 782 73 2 0.346 slower 0 1.549339e+06 1.549341e+06 2.638
26 irregular 8 83 783 46 2.500000e+00 0.397 slower 1 1.549343e+06 1.549347e+06 3.229
26 irregular 8 84 784 74 3 0.344 faster 1 1.549349e+06 1.549352e+06 3.567
26 irregular 8 85 785 73 1 0.138 faster 1 1.549353e+06 1.549355e+06 1.851
26 irregular 8 86 786 47 2 0.449 faster 0 1.549357e+06 1.549359e+06 2.651
26 irregular 8 87 787 46 2.500000e+00 0.111 faster 0 1.549360e+06 1.549363e+06 3.135
26 irregular 8 88 788 75 1 0.288 faster 1 1.549365e+06 1.549367e+06 1.756
26 irregular 8 89 789 74 1.500000e+00 0.325 faster 1 1.549368e+06 1.549370e+06 2.012
26 irregular 8 90 790 74 1 0.584 faster 1 1.549372e+06 1.549373e+06 1.541
26 irregular 8 91 791 47 3 0.354 faster 0 1.549375e+06 1.549378e+06 3.466
26 irregular 8 92 792 74 2.500000e+00 0.192 faster 1 1.549379e+06 1.549382e+06 2.991
26 irregular 8 93 793 74 3 0.481 faster 1 1.549384e+06 1.549388e+06 3.448
26 irregular 8 94 794 73 1 0.425 slower 0 1.549391e+06 1.549393e+06 1.962
26 irregular 8 95 795 46 3 0.204 slower 1 1.549394e+06 1.549398e+06 3.663
26 irregular 8 96 796 46 1 0.123 slower 1 1.549399e+06 1.549401e+06 1.574
26 irregular 8 97 797 47 1 0.218 slower 1 1.549402e+06 1.549404e+06 1.550
26 irregular 8 98 798 47 3 0.545 slower 1 1.549405e+06 1.549409e+06 3.600
26 irregular 8 99 799 72 2 0.389 faster 1 1.549411e+06 1.549413e+06 2.555
26 irregular 8 100 800 48 2.500000e+00 0.312 faster 0 1.549415e+06 1.549419e+06 3.197
26 regular 9 1 801 47 1.500000e+00 0.493 slower 1 1.549438e+06 1.549440e+06 1.939
26 regular 9 2 802 48 1.500000e+00 0.266 slower 1 1.549442e+06 1.549443e+06 1.943
26 regular 9 3 803 48 1.500000e+00 0.136 slower 1 1.549444e+06 1.549446e+06 1.975
26 regular 9 4 804 49 1.500000e+00 0.582 faster 0 1.549448e+06 1.549450e+06 1.932
26 regular 9 5 805 48 1.500000e+00 0.236 faster 0 1.549451e+06 1.549452e+06 1.917
26 regular 9 6 806 73 1.500000e+00 0.364 faster 1 1.549454e+06 1.549456e+06 1.847
26 regular 9 7 807 47 1.500000e+00 0.142 faster 0 1.549457e+06 1.549458e+06 1.823
26 regular 9 8 808 74 1.500000e+00 0.288 faster 1 1.549459e+06 1.549461e+06 1.725
26 regular 9 9 809 73 1.500000e+00 0.239 slower 0 1.549462e+06 1.549464e+06 1.828
26 regular 9 10 810 46 1.500000e+00 0.244 faster 0 1.549465e+06 1.549467e+06 1.768
26 regular 9 11 811 45 1.500000e+00 0.251 faster 0 1.549468e+06 1.549470e+06 1.749
26 regular 9 12 812 76 1.500000e+00 0.105 faster 1 1.549471e+06 1.549472e+06 1.790
26 regular 9 13 813 44 1.500000e+00 0.396 faster 0 1.549473e+06 1.549475e+06 1.815
26 regular 9 14 814 77 1.500000e+00 0.486 faster 1 1.549476e+06 1.549478e+06 1.761
26 regular 9 15 815 76 1.500000e+00 0.290 faster 1 1.549479e+06 1.549481e+06 1.784
26 regular 9 16 816 76 1.500000e+00 0.201 faster 1 1.549482e+06 1.549484e+06 1.894
26 regular 9 17 817 75 1.500000e+00 0.327 faster 1 1.549485e+06 1.549486e+06 1.852
26 regular 9 18 818 75 1.500000e+00 0.314 faster 1 1.549488e+06 1.549490e+06 1.814
26 regular 9 19 819 74 1.500000e+00 0.367 faster 1 1.549491e+06 1.549493e+06 1.798
26 regular 9 20 820 46 1.500000e+00 0.314 faster 0 1.549493e+06 1.549495e+06 1.788
26 regular 9 21 821 45 1.500000e+00 0.113 faster 0 1.549496e+06 1.549498e+06 1.927
26 regular 9 22 822 44 1.500000e+00 0.155 slower 1 1.549499e+06 1.549501e+06 1.827
26 regular 9 23 823 75 1.500000e+00 0.226 slower 0 1.549501e+06 1.549503e+06 1.766
26 regular 9 24 824 76 1.500000e+00 0.113 faster 1 1.549504e+06 1.549506e+06 1.869
26 regular 9 25 825 44 1.500000e+00 0.150 faster 0 1.549507e+06 1.549509e+06 2.064
26 regular 9 26 826 43 1.500000e+00 0.257 slower 1 1.549510e+06 1.549511e+06 1.918
26 regular 9 27 827 76 1.500000e+00 0.580 faster 1 1.549513e+06 1.549515e+06 1.888
26 regular 9 28 828 76 1.500000e+00 0.368 slower 0 1.549516e+06 1.549518e+06 2.027
26 regular 9 29 829 77 1.500000e+00 0.401 faster 1 1.549519e+06 1.549521e+06 1.953
26 regular 9 30 830 76 1.500000e+00 0.425 faster 1 1.549522e+06 1.549524e+06 1.857
26 regular 9 31 831 76 1.500000e+00 0.340 faster 1 1.549525e+06 1.549527e+06 1.868
26 regular 9 32 832 45 1.500000e+00 0.532 slower 1 1.549529e+06 1.549531e+06 2.159
26 regular 9 33 833 45 1.500000e+00 0.420 slower 1 1.549532e+06 1.549534e+06 2.116
26 regular 9 34 834 46 1.500000e+00 0.599 slower 1 1.549536e+06 1.549538e+06 2.015
26 regular 9 35 835 74 1.500000e+00 0.499 faster 1 1.549540e+06 1.549542e+06 2.050
26 regular 9 36 836 47 1.500000e+00 0.595 slower 1 1.549543e+06 1.549545e+06 2.043
26 regular 9 37 837 73 1.500000e+00 0.234 faster 1 1.549547e+06 1.549550e+06 2.160
26 regular 9 38 838 48 1.500000e+00 0.166 slower 1 1.549551e+06 1.549553e+06 2.242
26 regular 9 39 839 48 1.500000e+00 0.460 slower 1 1.549555e+06 1.549557e+06 2.315
26 regular 9 40 840 49 1.500000e+00 0.253 slower 1 1.549559e+06 1.549561e+06 2.028
26 regular 9 41 841 71 1.500000e+00 0.387 faster 1 1.549562e+06 1.549564e+06 1.898
26 regular 9 42 842 50 1.500000e+00 0.182 faster 0 1.549565e+06 1.549567e+06 1.949
26 regular 9 43 843 49 1.500000e+00 0.226 faster 0 1.549569e+06 1.549571e+06 1.861
26 regular 9 44 844 48 1.500000e+00 0.266 slower 1 1.549573e+06 1.549575e+06 2.002
26 regular 9 45 845 48 1.500000e+00 0.338 slower 1 1.549576e+06 1.549577e+06 1.851
26 regular 9 46 846 71 1.500000e+00 0.430 slower 0 1.549579e+06 1.549581e+06 1.870
26 regular 9 47 847 48 1.500000e+00 0.308 slower 1 1.549582e+06 1.549584e+06 2.004
26 regular 9 48 848 72 1.500000e+00 0.271 slower 0 1.549586e+06 1.549588e+06 2.016
26 regular 9 49 849 73 1.500000e+00 0.226 faster 1 1.549589e+06 1.549591e+06 2.126
26 regular 9 50 850 48 1.500000e+00 0.102 slower 1 1.549592e+06 1.549594e+06 2.070
26 regular 9 51 851 48 1.500000e+00 0.275 slower 1 1.549596e+06 1.549598e+06 2.076
26 regular 9 52 852 71 1.500000e+00 0.389 faster 1 1.549599e+06 1.549601e+06 2.017
26 regular 9 53 853 49 1.500000e+00 0.434 faster 0 1.549603e+06 1.549605e+06 2.052
26 regular 9 54 854 72 1.500000e+00 0.588 faster 1 1.549606e+06 1.549609e+06 2.146
26 regular 9 55 855 49 1.500000e+00 0.265 slower 1 1.549610e+06 1.549612e+06 2.238
26 regular 9 56 856 71 1.500000e+00 0.571 faster 1 1.549614e+06 1.549616e+06 2.067
26 regular 9 57 857 70 1.500000e+00 0.141 faster 1 1.549618e+06 1.549619e+06 1.906
26 regular 9 58 858 70 1.500000e+00 0.396 faster 1 1.549621e+06 1.549623e+06 1.919
26 regular 9 59 859 69 1.500000e+00 0.214 faster 1 1.549624e+06 1.549625e+06 1.888
26 regular 9 60 860 51 1.500000e+00 0.585 faster 0 1.549628e+06 1.549630e+06 1.922
26 regular 9 61 861 70 1.500000e+00 0.396 faster 1 1.549631e+06 1.549633e+06 2.124
26 regular 9 62 862 51 1.500000e+00 0.358 faster 0 1.549634e+06 1.549636e+06 2.127
26 regular 9 63 863 70 1.500000e+00 0.591 slower 0 1.549639e+06 1.549641e+06 2.325
26 regular 9 64 864 49 1.500000e+00 0.248 slower 1 1.549642e+06 1.549644e+06 2.052
26 regular 9 65 865 49 1.500000e+00 0.216 slower 1 1.549646e+06 1.549648e+06 1.935
26 regular 9 66 866 70 1.500000e+00 0.247 faster 1 1.549650e+06 1.549652e+06 2.065
26 regular 9 67 867 70 1.500000e+00 0.156 faster 1 1.549653e+06 1.549655e+06 1.973
26 regular 9 68 868 69 1.500000e+00 0.366 faster 1 1.549657e+06 1.549659e+06 2.034
26 regular 9 69 869 69 1.500000e+00 0.165 faster 1 1.549661e+06 1.549663e+06 2.089
26 regular 9 70 870 68 1.500000e+00 0.596 faster 1 1.549666e+06 1.549668e+06 2.039
26 regular 9 71 871 52 1.500000e+00 0.428 slower 1 1.549669e+06 1.549671e+06 1.971
26 regular 9 72 872 67 1.500000e+00 0.538 slower 0 1.549673e+06 1.549675e+06 1.914
26 regular 9 73 873 52 1.500000e+00 0.195 slower 1 1.549677e+06 1.549679e+06 2.002
26 regular 9 74 874 68 1.500000e+00 0.401 slower 0 1.549680e+06 1.549682e+06 1.974
26 regular 9 75 875 69 1.500000e+00 0.106 faster 1 1.549684e+06 1.549686e+06 2.089
26 regular 9 76 876 52 1.500000e+00 0.518 faster 0 1.549688e+06 1.549690e+06 1.903
26 regular 9 77 877 51 1.500000e+00 0.498 slower 1 1.549692e+06 1.549694e+06 2.059
26 regular 9 78 878 69 1.500000e+00 0.123 slower 0 1.549696e+06 1.549698e+06 2.173
26 regular 9 79 879 70 1.500000e+00 0.414 faster 1 1.549700e+06 1.549702e+06 2.083
26 regular 9 80 880 51 1.500000e+00 0.400 faster 0 1.549703e+06 1.549705e+06 1.925
26 regular 9 81 881 70 1.500000e+00 0.402 slower 0 1.549706e+06 1.549708e+06 1.887
26 regular 9 82 882 49 1.500000e+00 0.257 faster 0 1.549709e+06 1.549711e+06 1.924
26 regular 9 83 883 72 1.500000e+00 0.133 slower 0 1.549713e+06 1.549715e+06 1.942
26 regular 9 84 884 47 1.500000e+00 0.586 slower 1 1.549717e+06 1.549719e+06 2.136
26 regular 9 85 885 73 1.500000e+00 0.279 faster 1 1.549720e+06 1.549722e+06 1.974
26 regular 9 86 886 48 1.500000e+00 0.504 slower 1 1.549724e+06 1.549726e+06 2.239
26 regular 9 87 887 48 1.500000e+00 0.568 slower 1 1.549728e+06 1.549730e+06 2.108
26 regular 9 88 888 71 1.500000e+00 0.284 faster 1 1.549731e+06 1.549733e+06 2.076
26 regular 9 89 889 71 1.500000e+00 0.208 faster 1 1.549735e+06 1.549737e+06 2.095
26 regular 9 90 890 70 1.500000e+00 0.488 faster 1 1.549739e+06 1.549741e+06 2.068
26 regular 9 91 891 70 1.500000e+00 0.260 faster 1 1.549742e+06 1.549744e+06 2.103
26 regular 9 92 892 51 1.500000e+00 0.598 slower 1 1.549745e+06 1.549747e+06 1.935
26 regular 9 93 893 51 1.500000e+00 0.448 slower 1 1.549749e+06 1.549751e+06 1.886
26 regular 9 94 894 52 1.500000e+00 0.267 slower 1 1.549753e+06 1.549755e+06 1.974
26 regular 9 95 895 68 1.500000e+00 0.536 slower 0 1.549756e+06 1.549758e+06 1.977
26 regular 9 96 896 51 1.500000e+00 0.308 slower 1 1.549760e+06 1.549762e+06 2.105
26 regular 9 97 897 52 1.500000e+00 0.489 slower 1 1.549763e+06 1.549765e+06 2.047
26 regular 9 98 898 52 1.500000e+00 0.462 slower 1 1.549766e+06 1.549768e+06 2.111
26 regular 9 99 899 67 1.500000e+00 0.365 faster 1 1.549769e+06 1.549772e+06 2.158
26 regular 9 100 900 53 1.500000e+00 0.242 faster 0 1.549773e+06 1.549775e+06 2.126
26 irregular 10 1 901 52 2.500000e+00 0.164 none 2 1.549894e+06 1.549899e+06 5.500
26 irregular 10 2 902 68 1.500000e+00 0.560 none 2 1.549900e+06 1.549905e+06 4.500
26 irregular 10 3 903 68 2.500000e+00 0.309 none 2 1.549910e+06 1.549915e+06 5.499
26 irregular 10 4 904 68 2 0.505 none 2 1.549918e+06 1.549923e+06 4.999
26 irregular 10 5 905 68 2 0.558 faster 1 1.549928e+06 1.549931e+06 2.516
26 irregular 10 6 906 67 3 0.263 faster 1 1.549932e+06 1.549935e+06 3.506
26 irregular 10 7 907 53 1 0.156 faster 0 1.549936e+06 1.549938e+06 1.502
26 irregular 10 8 908 52 1 0.463 faster 0 1.549939e+06 1.549940e+06 1.444
26 irregular 10 9 909 69 1 0.143 slower 0 1.549941e+06 1.549942e+06 1.439
26 irregular 10 10 910 50 1 0.391 slower 1 1.549944e+06 1.549945e+06 1.485
26 irregular 10 11 911 69 3 0.473 faster 1 1.549946e+06 1.549950e+06 3.492
26 irregular 10 12 912 69 3 0.468 faster 1 1.549951e+06 1.549954e+06 3.455
26 irregular 10 13 913 52 1.500000e+00 0.554 faster 0 1.549956e+06 1.549958e+06 1.969
26 irregular 10 14 914 51 1.500000e+00 0.165 faster 0 1.549959e+06 1.549961e+06 1.832
26 irregular 10 15 915 50 1.500000e+00 0.231 slower 1 1.549962e+06 1.549964e+06 1.964
26 irregular 10 16 916 50 2 0.317 slower 1 1.549965e+06 1.549967e+06 2.554
26 irregular 10 17 917 69 3 0.523 faster 1 1.549968e+06 1.549972e+06 3.514
26 irregular 10 18 918 69 3 0.261 faster 1 1.549973e+06 1.549976e+06 3.480
26 irregular 10 19 919 68 2.500000e+00 0.493 faster 1 1.549977e+06 1.549980e+06 2.899
26 irregular 10 20 920 52 3 0.571 faster 0 1.549982e+06 1.549985e+06 3.368
26 irregular 10 21 921 69 1 0.505 slower 0 1.549987e+06 1.549988e+06 1.526
26 irregular 10 22 922 50 1.500000e+00 0.528 faster 0 1.549990e+06 1.549992e+06 1.986
26 irregular 10 23 923 71 1 0.478 faster 1 1.549993e+06 1.549994e+06 1.510
26 irregular 10 24 924 70 1 0.337 faster 1 1.549995e+06 1.549997e+06 1.580
26 irregular 10 25 925 50 3 0.457 faster 0 1.549998e+06 1.550002e+06 3.639
26 irregular 10 26 926 71 1.500000e+00 0.477 faster 1 1.550003e+06 1.550005e+06 2.003
26 irregular 10 27 927 50 1.500000e+00 0.405 faster 0 1.550006e+06 1.550008e+06 2.087
26 irregular 10 28 928 71 2 0.164 faster 1 1.550010e+06 1.550012e+06 2.602
26 irregular 10 29 929 49 1 0.280 faster 0 1.550013e+06 1.550015e+06 1.576
26 irregular 10 30 930 72 1.500000e+00 0.252 faster 1 1.550016e+06 1.550018e+06 2.080
26 irregular 10 31 931 71 1.500000e+00 0.541 faster 1 1.550019e+06 1.550021e+06 2.163
26 irregular 10 32 932 49 1 0.237 slower 1 1.550022e+06 1.550024e+06 1.483
26 irregular 10 33 933 70 1 0.198 faster 1 1.550025e+06 1.550026e+06 1.675
26 irregular 10 34 934 70 2.500000e+00 0.385 slower 0 1.550027e+06 1.550030e+06 2.984
26 irregular 10 35 935 49 2 0.558 faster 0 1.550031e+06 1.550034e+06 2.711
26 irregular 10 36 936 48 1.500000e+00 0.473 slower 1 1.550036e+06 1.550038e+06 1.964
26 irregular 10 37 937 71 1.500000e+00 0.316 faster 1 1.550040e+06 1.550042e+06 1.996
26 irregular 10 38 938 71 2 0.245 faster 1 1.550043e+06 1.550045e+06 2.402
26 irregular 10 39 939 50 3 0.323 faster 0 1.550046e+06 1.550045e+06 -0.983
26 irregular 10 40 940 71 2.500000e+00 0.403 faster 1 1.550050e+06 1.550053e+06 3.016
26 irregular 10 41 941 49 2 0.276 faster 0 1.550054e+06 1.550057e+06 2.509
26 irregular 10 42 942 72 2 0.438 faster 1 1.550058e+06 1.550061e+06 2.556
26 irregular 10 43 943 71 2 0.201 faster 1 1.550062e+06 1.550064e+06 2.486
26 irregular 10 44 944 71 3 0.152 faster 1 1.550065e+06 1.550068e+06 3.477
26 irregular 10 45 945 70 3 0.187 faster 1 1.550069e+06 1.550073e+06 3.396
26 irregular 10 46 946 70 1 0.422 faster 1 1.550074e+06 1.550076e+06 1.518
26 irregular 10 47 947 51 2 0.545 slower 1 1.550077e+06 1.550080e+06 2.592
26 irregular 10 48 948 69 1.500000e+00 0.322 faster 1 1.550081e+06 1.550082e+06 1.911
26 irregular 10 49 949 68 2.500000e+00 0.579 slower 0 1.550084e+06 1.550087e+06 2.937
26 irregular 10 50 950 51 3 0.327 slower 1 1.550088e+06 1.550092e+06 3.747
26 irregular 10 51 951 51 2.500000e+00 0.411 slower 1 1.550093e+06 1.550096e+06 3.204
26 irregular 10 52 952 52 1 0.291 faster 0 1.550097e+06 1.550099e+06 1.773
26 irregular 10 53 953 69 2 0.389 faster 1 1.550100e+06 1.550102e+06 2.612
26 irregular 10 54 954 51 2.500000e+00 0.300 slower 1 1.550103e+06 1.550107e+06 3.325
26 irregular 10 55 955 52 3 0.170 slower 1 1.550108e+06 1.550111e+06 3.832
26 irregular 10 56 956 52 1 0.457 faster 0 1.550113e+06 1.550114e+06 1.838
26 irregular 10 57 957 51 2 0.514 faster 0 1.550116e+06 1.550118e+06 2.587
26 irregular 10 58 958 70 1.500000e+00 0.498 faster 1 1.550120e+06 1.550122e+06 2.259
26 irregular 10 59 959 51 1.500000e+00 0.218 slower 1 1.550123e+06 1.550125e+06 1.979
26 irregular 10 60 960 69 1 0.424 faster 1 1.550127e+06 1.550129e+06 1.898
26 irregular 10 61 961 68 1 0.114 faster 1 1.550129e+06 1.550131e+06 1.875
26 irregular 10 62 962 52 1 0.346 slower 1 1.550132e+06 1.550134e+06 1.656
26 irregular 10 63 963 67 2.500000e+00 0.180 faster 1 1.550135e+06 1.550138e+06 2.995
26 irregular 10 64 964 67 2 0.331 faster 1 1.550139e+06 1.550141e+06 2.721
26 irregular 10 65 965 54 3 0.408 faster 0 1.550144e+06 1.550148e+06 3.773
26 irregular 10 66 966 67 1.500000e+00 0.220 faster 1 1.550150e+06 1.550152e+06 1.970
26 irregular 10 67 967 67 1 0.171 faster 1 1.550153e+06 1.550155e+06 1.598
26 irregular 10 68 968 66 1.500000e+00 0.120 faster 1 1.550157e+06 1.550159e+06 1.948
26 irregular 10 69 969 54 1.500000e+00 0.516 slower 1 1.550162e+06 1.550164e+06 1.988
26 irregular 10 70 970 65 3 0.239 faster 1 1.550165e+06 1.550169e+06 3.786
26 irregular 10 71 971 55 1 0.176 faster 0 1.550171e+06 1.550172e+06 1.559
26 irregular 10 72 972 66 2 0.350 faster 1 1.550174e+06 1.550177e+06 2.456
26 irregular 10 73 973 55 2 0.392 slower 1 1.550178e+06 1.550181e+06 2.572
26 irregular 10 74 974 55 2.500000e+00 0.143 slower 1 1.550182e+06 1.550185e+06 3.170
26 irregular 10 75 975 56 2 0.588 slower 1 1.550189e+06 1.550191e+06 2.428
26 irregular 10 76 976 56 2.500000e+00 0.406 slower 1 1.550193e+06 1.550195e+06 2.860
26 irregular 10 77 977 57 3 0.571 faster 0 1.550198e+06 1.550202e+06 3.449
26 irregular 10 78 978 56 3 0.226 faster 0 1.550203e+06 1.550206e+06 3.556
26 irregular 10 79 979 55 2.500000e+00 0.430 faster 0 1.550208e+06 1.550211e+06 3.091
26 irregular 10 80 980 54 2 0.305 faster 0 1.550213e+06 1.550215e+06 2.618
26 irregular 10 81 981 53 1 0.253 faster 0 1.550217e+06 1.550219e+06 1.666
26 irregular 10 82 982 52 3 0.305 faster 0 1.550220e+06 1.550224e+06 3.584
26 irregular 10 83 983 51 2 0.327 faster 0 1.550226e+06 1.550229e+06 2.639
26 irregular 10 84 984 50 2.500000e+00 0.354 faster 0 1.550230e+06 1.550233e+06 2.913
26 irregular 10 85 985 71 1.500000e+00 0.344 faster 1 1.550234e+06 1.550236e+06 1.951
26 irregular 10 86 986 49 1.500000e+00 0.147 faster 0 1.550237e+06 1.550239e+06 1.890
26 irregular 10 87 987 72 2.500000e+00 0.416 faster 1 1.550242e+06 1.550245e+06 3.012
26 irregular 10 88 988 71 1 0.265 faster 1 1.550248e+06 1.550250e+06 1.516
26 irregular 10 89 989 71 2.500000e+00 0.177 faster 1 1.550250e+06 1.550253e+06 2.958
26 irregular 10 90 990 70 2 0.196 faster 1 1.550255e+06 1.550257e+06 2.514
26 irregular 10 91 991 70 2.500000e+00 0.488 faster 1 1.550259e+06 1.550262e+06 3.144
26 irregular 10 92 992 69 3 0.367 faster 1 1.550264e+06 1.550268e+06 3.496
26 irregular 10 93 993 51 2.500000e+00 0.427 faster 0 1.550270e+06 1.550273e+06 3.147
26 irregular 10 94 994 50 3 0.388 faster 0 1.550275e+06 1.550279e+06 3.270
26 irregular 10 95 995 49 2.500000e+00 0.335 faster 0 1.550281e+06 1.550284e+06 2.839
26 irregular 10 96 996 48 1.500000e+00 0.427 faster 0 1.550286e+06 1.550288e+06 1.920
26 irregular 10 97 997 73 3 0.413 faster 1 1.550289e+06 1.550293e+06 3.389
26 irregular 10 98 998 72 2.500000e+00 0.166 faster 1 1.550295e+06 1.550297e+06 2.904
26 irregular 10 99 999 48 2.500000e+00 0.320 slower 1 1.550300e+06 1.550303e+06 3.052
26 irregular 10 100 1000 49 2 0.588 faster 0 1.550306e+06 1.550308e+06 2.541
