subNo condition blockNo trialNo trialID currentFrequency cueTargetInterval randomPreCueInterval response responseAccuracy startTime responseTime RT
1 irregular 1 1 1 54 2.500000e+00 0.439 slower 1 1.294061e+06 1.294064e+06 3.027
1 irregular 1 2 2 54 2.500000e+00 0.357 faster 0 1.294065e+06 1.294068e+06 3.487
1 irregular 1 3 3 68 3 0.149 slower 0 1.294069e+06 1.294073e+06 3.913
1 irregular 1 4 4 50 3 0.212 slower 1 1.294074e+06 1.294078e+06 3.580
1 irregular 1 5 5 68 3 0.179 faster 1 1.294079e+06 1.294082e+06 3.633
1 irregular 1 6 6 52 2.500000e+00 0.524 slower 1 1.294084e+06 1.294087e+06 3.115
1 irregular 1 7 7 66 1.500000e+00 0.167 faster 1 1.294091e+06 1.294094e+06 2.424
1 irregular 1 8 8 54 1 0.325 slower 1 1.294095e+06 1.294096e+06 1.695
1 irregular 1 9 9 56 2 0.467 slower 1 1.294100e+06 1.294103e+06 2.904
1 irregular 1 10 10 56 1 0.319 faster 0 1.294107e+06 1.294109e+06 1.872
1 irregular 1 11 11 66 1 0.160 slower 0 1.294111e+06 1.294113e+06 2.334
1 irregular 1 12 12 68 2 0.257 faster 1 1.294115e+06 1.294118e+06 2.537
1 irregular 1 13 13 66 2.500000e+00 0.533 slower 0 1.294127e+06 1.294130e+06 3.090
1 irregular 1 14 14 67 2.500000e+00 0.274 faster 1 1.294132e+06 1.294135e+06 3.074
1 irregular 1 15 15 53 2 0.427 slower 1 1.294138e+06 1.294140e+06 2.540
1 irregular 1 16 16 66 1.500000e+00 0.387 faster 1 1.294143e+06 1.294145e+06 2.067
1 irregular 1 17 17 66 1 0.537 faster 1 1.294146e+06 1.294148e+06 1.588
1 irregular 1 18 18 55 1 0.379 slower 1 1.294152e+06 1.294154e+06 1.753
1 irregular 1 19 19 55 2 0.305 faster 0 1.294155e+06 1.294158e+06 2.522
1 irregular 1 20 20 54 1 0.536 faster 0 1.294166e+06 1.294168e+06 1.877
1 irregular 1 21 21 53 1 0.361 slower 1 1.294174e+06 1.294175e+06 1.649
1 irregular 1 22 22 54 3 0.448 slower 1 1.294184e+06 1.294188e+06 3.583
1 irregular 1 23 23 54 2 0.293 slower 1 1.294189e+06 1.294191e+06 2.890
1 irregular 1 24 24 65 2 0.356 slower 0 1.294197e+06 1.294200e+06 2.573
1 irregular 1 25 25 66 2 0.306 faster 1 1.294201e+06 1.294204e+06 2.970
1 irregular 1 26 26 66 2 0.471 slower 0 1.294207e+06 1.294210e+06 2.731
1 irregular 1 27 27 53 2 0.323 slower 1 1.294211e+06 1.294213e+06 2.736
1 irregular 1 28 28 66 1.500000e+00 0.506 slower 0 1.294222e+06 1.294224e+06 2.171
1 irregular 1 29 29 53 1.500000e+00 0.346 faster 0 1.294230e+06 1.294233e+06 3.061
1 irregular 1 30 30 68 3 0.551 slower 0 1.294235e+06 1.294238e+06 3.713
1 irregular 1 31 31 69 3 0.525 faster 1 1.294240e+06 1.294243e+06 3.549
1 irregular 1 32 32 51 1 0.111 slower 1 1.294244e+06 1.294246e+06 1.710
1 irregular 1 33 33 52 1.500000e+00 0.282 slower 1 1.294251e+06 1.294253e+06 2.075
1 irregular 1 34 34 52 3 0.511 slower 1 1.294260e+06 1.294264e+06 3.479
1 irregular 1 35 35 53 2 0.246 slower 1 1.294273e+06 1.294275e+06 2.626
1 irregular 1 36 36 67 2.500000e+00 0.294 faster 1 1.294276e+06 1.294280e+06 3.078
1 irregular 1 37 37 54 2.500000e+00 0.233 slower 1 1.294280e+06 1.294283e+06 3.016
1 irregular 1 38 38 66 2.500000e+00 0.435 faster 1 1.294285e+06 1.294288e+06 3.051
1 irregular 1 39 39 55 3 0.275 slower 1 1.294291e+06 1.294295e+06 3.603
1 irregular 1 40 40 65 1 0.344 slower 0 1.294297e+06 1.294299e+06 1.734
1 irregular 1 41 41 54 2.500000e+00 0.144 slower 1 1.294307e+06 1.294311e+06 3.180
1 irregular 1 42 42 65 3 0.497 faster 1 1.294312e+06 1.294316e+06 3.520
1 irregular 1 43 43 55 2 0.122 slower 1 1.294317e+06 1.294320e+06 2.999
1 irregular 1 44 44 64 2.500000e+00 0.276 slower 0 1.294323e+06 1.294326e+06 3.069
1 irregular 1 45 45 65 2.500000e+00 0.500 faster 1 1.294327e+06 1.294330e+06 3.139
1 irregular 1 46 46 65 2 0.565 slower 0 1.294333e+06 1.294336e+06 2.593
1 irregular 1 47 47 54 3 0.278 slower 1 1.294339e+06 1.294342e+06 3.647
1 irregular 1 48 48 65 1 0.417 slower 0 1.294344e+06 1.294345e+06 1.706
1 irregular 1 49 49 54 1.500000e+00 0.302 slower 1 1.294348e+06 1.294350e+06 2.067
1 irregular 1 50 50 54 3 0.125 slower 1 1.294352e+06 1.294356e+06 3.555
1 irregular 1 51 51 55 1.500000e+00 0.120 slower 1 1.294363e+06 1.294366e+06 2.358
1 irregular 1 52 52 55 2.500000e+00 0.273 slower 1 1.294367e+06 1.294370e+06 3.259
1 irregular 1 53 53 64 3 0.593 slower 0 1.294376e+06 1.294379e+06 3.572
1 irregular 1 54 54 65 1 0.246 faster 1 1.294380e+06 1.294382e+06 2.024
1 irregular 1 55 55 55 1.500000e+00 0.582 slower 1 1.294383e+06 1.294386e+06 2.314
1 irregular 1 56 56 56 1 0.231 faster 0 1.294387e+06 1.294389e+06 1.748
1 irregular 1 57 57 65 2 0.261 faster 1 1.294392e+06 1.294394e+06 2.848
1 irregular 1 58 58 55 2.500000e+00 0.132 slower 1 1.294398e+06 1.294402e+06 3.184
1 irregular 1 59 59 64 2.500000e+00 0.165 slower 0 1.294412e+06 1.294415e+06 3.137
1 irregular 1 60 60 55 2 0.101 faster 0 1.294416e+06 1.294419e+06 3.074
1 irregular 1 61 61 66 3 0.517 faster 1 1.294421e+06 1.294425e+06 3.770
1 irregular 1 62 62 66 1.500000e+00 0.122 faster 1 1.294427e+06 1.294429e+06 2.341
1 irregular 1 63 63 55 1 0.478 slower 1 1.294431e+06 1.294432e+06 1.814
1 irregular 1 64 64 55 1.500000e+00 0.377 slower 1 1.294434e+06 1.294436e+06 2.611
1 irregular 1 65 65 64 1.500000e+00 0.306 slower 0 1.294437e+06 1.294440e+06 2.360
1 irregular 1 66 66 65 2 0.470 faster 1 1.294442e+06 1.294445e+06 2.612
1 irregular 1 67 67 55 1.500000e+00 0.460 slower 1 1.294446e+06 1.294448e+06 2.163
1 irregular 1 68 68 64 2 0.124 slower 0 1.294452e+06 1.294455e+06 2.639
1 irregular 1 69 69 65 1.500000e+00 0.370 faster 1 1.294457e+06 1.294459e+06 2.137
1 irregular 1 70 70 65 1.500000e+00 0.110 slower 0 1.294460e+06 1.294462e+06 2.181
1 irregular 1 71 71 66 1 0.174 faster 1 1.294463e+06 1.294465e+06 2.026
1 irregular 1 72 72 65 2 0.145 faster 1 1.294470e+06 1.294472e+06 2.658
1 irregular 1 73 73 65 3 0.371 slower 0 1.294478e+06 1.294482e+06 3.710
1 irregular 1 74 74 54 3 0.261 faster 0 1.294484e+06 1.294488e+06 3.710
1 irregular 1 75 75 67 3 0.304 faster 1 1.294489e+06 1.294493e+06 3.567
1 irregular 1 76 76 54 2 0.452 faster 0 1.294494e+06 1.294497e+06 2.758
1 irregular 1 77 77 67 2.500000e+00 0.519 faster 1 1.294502e+06 1.294505e+06 3.062
1 irregular 1 78 78 53 1.500000e+00 0.206 faster 0 1.294506e+06 1.294509e+06 2.427
1 irregular 1 79 79 52 3 0.407 faster 0 1.294515e+06 1.294519e+06 4.049
1 irregular 1 80 80 51 2.500000e+00 0.362 slower 1 1.294521e+06 1.294524e+06 3.253
1 irregular 1 81 81 52 2.500000e+00 0.145 faster 0 1.294525e+06 1.294528e+06 3.338
1 irregular 1 82 82 51 1 0.593 slower 1 1.294530e+06 1.294532e+06 2.093
1 irregular 1 83 83 51 2 0.437 slower 1 1.294534e+06 1.294537e+06 2.651
1 irregular 1 84 84 68 1.500000e+00 0.343 faster 1 1.294539e+06 1.294541e+06 2.062
1 irregular 1 85 85 68 2 0.557 faster 1 1.294543e+06 1.294546e+06 2.569
1 irregular 1 86 86 53 1.500000e+00 0.204 faster 0 1.294557e+06 1.294560e+06 2.142
1 irregular 1 87 87 68 3 0.585 faster 1 1.294561e+06 1.294565e+06 4.171
1 irregular 1 88 88 52 1.500000e+00 0.204 slower 1 1.294566e+06 1.294568e+06 2.213
1 irregular 1 89 89 67 2.500000e+00 0.316 slower 0 1.294570e+06 1.294573e+06 3.456
1 irregular 1 90 90 68 2.500000e+00 0.284 faster 1 1.294577e+06 1.294580e+06 3.170
1 irregular 1 91 91 52 3 0.376 slower 1 1.294581e+06 1.294584e+06 3.570
1 irregular 1 92 92 67 1.500000e+00 0.196 faster 1 1.294587e+06 1.294589e+06 2.081
1 irregular 1 93 93 53 1 0.397 faster 0 1.294590e+06 1.294591e+06 1.592
1 irregular 1 94 94 68 1 0.177 faster 1 1.294592e+06 1.294594e+06 1.565
1 irregular 1 95 95 53 3 0.466 faster 0 1.294599e+06 1.294604e+06 4.332
1 irregular 1 96 96 68 1 0.288 faster 1 1.294605e+06 1.294607e+06 1.655
1 irregular 1 97 97 68 1.500000e+00 0.107 faster 1 1.294608e+06 1.294610e+06 2.266
1 irregular 1 98 98 53 2.500000e+00 0.499 faster 0 1.294611e+06 1.294615e+06 3.787
1 irregular 1 99 99 68 1 0.233 faster 1 1.294625e+06 1.294627e+06 1.613
1 irregular 1 100 100 68 1 0.303 faster 1 1.294629e+06 1.294631e+06 1.651
1 regular 2 1 101 53 2.500000e+00 0.505 slower 1 1.294816e+06 1.294819e+06 3.814
1 regular 2 2 102 53 2.500000e+00 0.103 faster 0 1.294821e+06 1.294825e+06 3.976
1 regular 2 3 103 68 2.500000e+00 0.364 faster 1 1.294827e+06 1.294831e+06 3.843
1 regular 2 4 104 53 2.500000e+00 0.527 slower 1 1.294833e+06 1.294837e+06 3.747
1 regular 2 5 105 67 2.500000e+00 0.278 faster 1 1.294838e+06 1.294841e+06 3.375
1 regular 2 6 106 54 2.500000e+00 0.385 slower 1 1.294842e+06 1.294845e+06 3.393
1 regular 2 7 107 54 2.500000e+00 0.590 faster 0 1.294847e+06 1.294850e+06 3.248
1 regular 2 8 108 67 2.500000e+00 0.513 faster 1 1.294851e+06 1.294855e+06 3.316
1 regular 2 9 109 54 2.500000e+00 0.413 faster 0 1.294860e+06 1.294863e+06 3.284
1 regular 2 10 110 53 2.500000e+00 0.370 slower 1 1.294892e+06 1.294896e+06 4.099
1 regular 2 11 111 67 2.500000e+00 0.237 faster 1 1.294897e+06 1.294902e+06 4.297
1 regular 2 12 112 66 2.500000e+00 0.193 slower 0 1.294902e+06 1.294906e+06 3.145
1 regular 2 13 113 53 2.500000e+00 0.512 faster 0 1.294908e+06 1.294911e+06 3.309
1 regular 2 14 114 52 2.500000e+00 0.541 faster 0 1.294912e+06 1.294916e+06 3.765
1 regular 2 15 115 69 2.500000e+00 0.302 faster 1 1.294917e+06 1.294920e+06 3.137
1 regular 2 16 116 51 2.500000e+00 0.104 slower 1 1.294922e+06 1.294925e+06 3.200
1 regular 2 17 117 68 2.500000e+00 0.438 faster 1 1.294927e+06 1.294930e+06 3.124
1 regular 2 18 118 68 2.500000e+00 0.192 faster 1 1.294931e+06 1.294935e+06 3.162
1 regular 2 19 119 67 2.500000e+00 0.231 faster 1 1.294936e+06 1.294939e+06 3.071
1 regular 2 20 120 53 2.500000e+00 0.252 slower 1 1.294941e+06 1.294944e+06 3.149
1 regular 2 21 121 54 2.500000e+00 0.111 slower 1 1.294945e+06 1.294948e+06 3.041
1 regular 2 22 122 66 2.500000e+00 0.404 slower 0 1.294949e+06 1.294953e+06 3.333
1 regular 2 23 123 67 2.500000e+00 0.181 slower 0 1.294954e+06 1.294958e+06 3.537
1 regular 2 24 124 68 2.500000e+00 0.405 slower 0 1.294959e+06 1.294963e+06 3.419
1 regular 2 25 125 51 2.500000e+00 0.400 slower 1 1.294964e+06 1.294967e+06 2.959
1 regular 2 26 126 68 2.500000e+00 0.142 faster 1 1.294968e+06 1.294971e+06 3.375
1 regular 2 27 127 68 2.500000e+00 0.449 faster 1 1.294973e+06 1.294976e+06 3.618
1 regular 2 28 128 53 2.500000e+00 0.415 faster 0 1.294978e+06 1.294982e+06 3.693
1 regular 2 29 129 68 2.500000e+00 0.279 faster 1 1.294983e+06 1.294986e+06 3.163
1 regular 2 30 130 52 2.500000e+00 0.183 slower 1 1.294988e+06 1.294991e+06 3.034
1 regular 2 31 131 53 2.500000e+00 0.359 slower 1 1.294993e+06 1.294996e+06 3.215
1 regular 2 32 132 67 2.500000e+00 0.504 faster 1 1.294998e+06 1.295001e+06 3.710
1 regular 2 33 133 54 2.500000e+00 0.340 faster 0 1.295003e+06 1.295006e+06 3.475
1 regular 2 34 134 53 2.500000e+00 0.325 slower 1 1.295008e+06 1.295011e+06 3.387
1 regular 2 35 135 67 2.500000e+00 0.175 slower 0 1.295012e+06 1.295016e+06 3.567
1 regular 2 36 136 68 2.500000e+00 0.118 faster 1 1.295017e+06 1.295021e+06 3.495
1 regular 2 37 137 67 2.500000e+00 0.383 slower 0 1.295022e+06 1.295025e+06 3.145
1 regular 2 38 138 68 2.500000e+00 0.429 faster 1 1.295026e+06 1.295029e+06 3.190
1 regular 2 39 139 68 2.500000e+00 0.517 faster 1 1.295031e+06 1.295034e+06 3.340
1 regular 2 40 140 67 2.500000e+00 0.359 faster 1 1.295036e+06 1.295039e+06 3.199
1 regular 2 41 141 53 2.500000e+00 0.334 slower 1 1.295040e+06 1.295044e+06 3.156
1 regular 2 42 142 66 2.500000e+00 0.284 faster 1 1.295045e+06 1.295048e+06 3.134
1 regular 2 43 143 66 2.500000e+00 0.503 slower 0 1.295050e+06 1.295053e+06 3.317
1 regular 2 44 144 67 2.500000e+00 0.430 faster 1 1.295055e+06 1.295058e+06 3.280
1 regular 2 45 145 54 2.500000e+00 0.303 slower 1 1.295059e+06 1.295063e+06 3.239
1 regular 2 46 146 54 2.500000e+00 0.163 slower 1 1.295064e+06 1.295067e+06 3.225
1 regular 2 47 147 55 2.500000e+00 0.135 slower 1 1.295068e+06 1.295072e+06 3.189
1 regular 2 48 148 55 2.500000e+00 0.500 slower 1 1.295073e+06 1.295076e+06 3.043
1 regular 2 49 149 56 2.500000e+00 0.405 slower 1 1.295077e+06 1.295080e+06 3.111
1 regular 2 50 150 56 2.500000e+00 0.190 slower 1 1.295081e+06 1.295085e+06 3.165
1 regular 2 51 151 57 2.500000e+00 0.238 slower 1 1.295086e+06 1.295089e+06 3.078
1 regular 2 52 152 57 2.500000e+00 0.254 slower 1 1.295091e+06 1.295094e+06 3.064
1 regular 2 53 153 58 2.500000e+00 0.582 faster 0 1.295096e+06 1.295100e+06 3.476
1 regular 2 54 154 63 2.500000e+00 0.182 slower 0 1.295101e+06 1.295105e+06 3.240
1 regular 2 55 155 64 2.500000e+00 0.506 slower 0 1.295106e+06 1.295110e+06 3.417
1 regular 2 56 156 55 2.500000e+00 0.224 slower 1 1.295111e+06 1.295114e+06 3.099
1 regular 2 57 157 65 2.500000e+00 0.199 slower 0 1.295116e+06 1.295119e+06 3.148
1 regular 2 58 158 66 2.500000e+00 0.302 slower 0 1.295121e+06 1.295124e+06 3.121
1 regular 2 59 159 53 2.500000e+00 0.456 slower 1 1.295131e+06 1.295134e+06 3.133
1 regular 2 60 160 54 2.500000e+00 0.306 slower 1 1.295136e+06 1.295140e+06 3.673
1 regular 2 61 161 66 2.500000e+00 0.193 none 2 1.295207e+06 1.295213e+06 5.499
1 regular 2 62 162 54 2.500000e+00 0.180 slower 1 1.295214e+06 1.295217e+06 3.190
1 regular 2 63 163 55 2.500000e+00 0.106 slower 1 1.295217e+06 1.295221e+06 3.089
1 regular 2 64 164 55 2.500000e+00 0.427 slower 1 1.295222e+06 1.295226e+06 3.916
1 regular 2 65 165 64 2.500000e+00 0.492 faster 1 1.295287e+06 1.295291e+06 3.588
1 regular 2 66 166 64 2.500000e+00 0.259 faster 1 1.295292e+06 1.295296e+06 3.478
1 regular 2 67 167 63 2.500000e+00 0.107 faster 1 1.295296e+06 1.295300e+06 3.190
1 regular 2 68 168 63 2.500000e+00 0.509 faster 1 1.295301e+06 1.295305e+06 3.468
1 regular 2 69 169 62 2.500000e+00 0.157 faster 1 1.295306e+06 1.295309e+06 3.508
1 regular 2 70 170 62 2.500000e+00 0.238 faster 1 1.295311e+06 1.295314e+06 3.255
1 regular 2 71 171 61 2.500000e+00 0.493 slower 0 1.295315e+06 1.295318e+06 3.300
1 regular 2 72 172 62 2.500000e+00 0.466 faster 1 1.295320e+06 1.295323e+06 3.281
1 regular 2 73 173 58 2.500000e+00 0.322 faster 0 1.295325e+06 1.295328e+06 3.810
1 regular 2 74 174 57 2.500000e+00 0.529 faster 0 1.295330e+06 1.295333e+06 3.335
1 regular 2 75 175 56 2.500000e+00 0.210 faster 0 1.295334e+06 1.295337e+06 3.157
1 regular 2 76 176 55 2.500000e+00 0.340 faster 0 1.295339e+06 1.295342e+06 3.148
1 regular 2 77 177 54 2.500000e+00 0.545 faster 0 1.295343e+06 1.295346e+06 3.048
1 regular 2 78 178 67 2.500000e+00 0.149 faster 1 1.295347e+06 1.295351e+06 3.182
1 regular 2 79 179 54 2.500000e+00 0.225 slower 1 1.295351e+06 1.295355e+06 3.177
1 regular 2 80 180 66 2.500000e+00 0.426 faster 1 1.295356e+06 1.295359e+06 3.024
1 regular 2 81 181 55 2.500000e+00 0.280 faster 0 1.295360e+06 1.295363e+06 3.144
1 regular 2 82 182 66 2.500000e+00 0.148 slower 0 1.295364e+06 1.295368e+06 3.290
1 regular 2 83 183 67 2.500000e+00 0.109 faster 1 1.295369e+06 1.295373e+06 3.623
1 regular 2 84 184 67 2.500000e+00 0.332 faster 1 1.295374e+06 1.295377e+06 3.169
1 regular 2 85 185 54 2.500000e+00 0.534 slower 1 1.295379e+06 1.295382e+06 3.113
1 regular 2 86 186 54 2.500000e+00 0.499 slower 1 1.295383e+06 1.295386e+06 3.151
1 regular 2 87 187 55 2.500000e+00 0.597 faster 0 1.295387e+06 1.295390e+06 3.110
1 regular 2 88 188 54 2.500000e+00 0.293 faster 0 1.295392e+06 1.295395e+06 3.577
1 regular 2 89 189 53 2.500000e+00 0.491 faster 0 1.295397e+06 1.295400e+06 3.107
1 regular 2 90 190 52 2.500000e+00 0.589 slower 1 1.295402e+06 1.295405e+06 3.182
1 regular 2 91 191 68 2.500000e+00 0.101 faster 1 1.295406e+06 1.295410e+06 3.247
1 regular 2 92 192 53 2.500000e+00 0.131 slower 1 1.295416e+06 1.295419e+06 3.422
1 regular 2 93 193 67 2.500000e+00 0.176 faster 1 1.295420e+06 1.295423e+06 3.118
1 regular 2 94 194 66 2.500000e+00 0.307 faster 1 1.295428e+06 1.295431e+06 3.283
1 regular 2 95 195 66 2.500000e+00 0.362 faster 1 1.295433e+06 1.295436e+06 3.183
1 regular 2 96 196 55 2.500000e+00 0.102 faster 0 1.295438e+06 1.295442e+06 4.055
1 regular 2 97 197 66 2.500000e+00 0.107 slower 0 1.295443e+06 1.295447e+06 3.298
1 regular 2 98 198 53 2.500000e+00 0.171 faster 0 1.295456e+06 1.295459e+06 3.570
1 regular 2 99 199 68 2.500000e+00 0.143 faster 1 1.295460e+06 1.295463e+06 3.170
1 regular 2 100 200 68 2.500000e+00 0.474 faster 1 1.295465e+06 1.295468e+06 3.120
1 irregular 3 1 201 67 3 0.533 faster 1 1.296524e+06 1.296528e+06 4.086
1 irregular 3 2 202 53 3 0.127 faster 0 1.296529e+06 1.296533e+06 3.766
1 irregular 3 3 203 68 1 0.173 faster 1 1.296534e+06 1.296536e+06 1.807
1 irregular 3 4 204 67 2 0.260 faster 1 1.296536e+06 1.296539e+06 2.510
1 irregular 3 5 205 53 3 0.471 faster 0 1.296540e+06 1.296544e+06 3.739
1 irregular 3 6 206 68 2 0.254 faster 1 1.296545e+06 1.296548e+06 2.536
1 irregular 3 7 207 67 1.500000e+00 0.390 faster 1 1.296549e+06 1.296551e+06 1.992
1 irregular 3 8 208 67 3 0.277 faster 1 1.296552e+06 1.296556e+06 3.801
1 irregular 3 9 209 54 1 0.358 slower 1 1.296557e+06 1.296559e+06 2.096
1 irregular 3 10 210 66 2 0.416 slower 0 1.296560e+06 1.296563e+06 2.710
1 irregular 3 11 211 53 1.500000e+00 0.162 faster 0 1.296564e+06 1.296566e+06 2.103
1 irregular 3 12 212 52 2.500000e+00 0.561 slower 1 1.296567e+06 1.296571e+06 3.582
1 irregular 3 13 213 53 3 0.246 faster 0 1.296572e+06 1.296576e+06 4.230
1 irregular 3 14 214 52 1 0.467 faster 0 1.296577e+06 1.296579e+06 1.679
1 irregular 3 15 215 69 1 0.441 faster 1 1.296580e+06 1.296582e+06 1.780
1 irregular 3 16 216 51 1.500000e+00 0.129 slower 1 1.296583e+06 1.296585e+06 2.298
1 irregular 3 17 217 52 1 0.418 slower 1 1.296586e+06 1.296588e+06 1.956
1 irregular 3 18 218 68 3 0.277 faster 1 1.296589e+06 1.296593e+06 3.702
1 irregular 3 19 219 67 1 0.447 faster 1 1.296595e+06 1.296596e+06 1.641
1 irregular 3 20 220 53 2 0.440 faster 0 1.296597e+06 1.296601e+06 3.197
1 irregular 3 21 221 68 1 0.107 faster 1 1.296602e+06 1.296603e+06 1.600
1 irregular 3 22 222 53 3 0.455 slower 1 1.296604e+06 1.296608e+06 3.645
1 irregular 3 23 223 67 3 0.547 faster 1 1.296610e+06 1.296613e+06 3.708
1 irregular 3 24 224 54 2.500000e+00 0.306 faster 0 1.296614e+06 1.296618e+06 3.108
1 irregular 3 25 225 53 3 0.202 slower 1 1.296619e+06 1.296623e+06 4.327
1 irregular 3 26 226 53 1.500000e+00 0.417 slower 1 1.296625e+06 1.296627e+06 2.394
1 irregular 3 27 227 66 2 0.218 slower 0 1.296628e+06 1.296631e+06 2.711
1 irregular 3 28 228 67 3 0.193 faster 1 1.296632e+06 1.296636e+06 3.566
1 irregular 3 29 229 67 1 0.472 faster 1 1.296637e+06 1.296638e+06 1.646
1 irregular 3 30 230 54 3 0.436 slower 1 1.296640e+06 1.296644e+06 3.687
1 irregular 3 31 231 54 2.500000e+00 0.259 slower 1 1.296645e+06 1.296648e+06 3.169
1 irregular 3 32 232 65 2.500000e+00 0.343 faster 1 1.296650e+06 1.296653e+06 3.185
1 irregular 3 33 233 55 1 0.556 slower 1 1.296655e+06 1.296657e+06 1.807
1 irregular 3 34 234 64 1.500000e+00 0.303 slower 0 1.296658e+06 1.296660e+06 2.502
1 irregular 3 35 235 65 2.500000e+00 0.465 slower 0 1.296662e+06 1.296665e+06 3.406
1 irregular 3 36 236 54 2.500000e+00 0.443 faster 0 1.296667e+06 1.296670e+06 3.118
1 irregular 3 37 237 53 2 0.136 faster 0 1.296671e+06 1.296674e+06 2.610
1 irregular 3 38 238 52 1 0.223 slower 1 1.296675e+06 1.296678e+06 2.488
1 irregular 3 39 239 52 2 0.435 slower 1 1.296679e+06 1.296682e+06 2.654
1 irregular 3 40 240 53 2.500000e+00 0.137 slower 1 1.296682e+06 1.296685e+06 3.083
1 irregular 3 41 241 67 2 0.228 faster 1 1.296690e+06 1.296693e+06 3.009
1 irregular 3 42 242 66 3 0.597 faster 1 1.296695e+06 1.296698e+06 3.754
1 irregular 3 43 243 66 2.500000e+00 0.440 faster 1 1.296704e+06 1.296707e+06 3.428
1 irregular 3 44 244 65 1 0.465 slower 0 1.296714e+06 1.296716e+06 1.959
1 irregular 3 45 245 54 2 0.389 slower 1 1.296725e+06 1.296728e+06 2.586
1 irregular 3 46 246 54 2 0.317 slower 1 1.296729e+06 1.296731e+06 2.886
1 irregular 3 47 247 65 1.500000e+00 0.495 faster 1 1.296733e+06 1.296735e+06 2.182
1 irregular 3 48 248 55 1.500000e+00 0.108 slower 1 1.296739e+06 1.296741e+06 2.210
1 irregular 3 49 249 64 3 0.338 slower 0 1.296757e+06 1.296760e+06 3.592
1 irregular 3 50 250 65 1.500000e+00 0.465 faster 1 1.296763e+06 1.296765e+06 2.096
1 irregular 3 51 251 55 1.500000e+00 0.547 slower 1 1.296768e+06 1.296770e+06 2.415
1 irregular 3 52 252 56 2.500000e+00 0.378 faster 0 1.296778e+06 1.296781e+06 3.506
1 irregular 3 53 253 65 2.500000e+00 0.107 faster 1 1.296786e+06 1.296790e+06 3.220
1 irregular 3 54 254 55 3 0.379 slower 1 1.296792e+06 1.296796e+06 3.841
1 irregular 3 55 255 64 1 0.179 faster 1 1.296799e+06 1.296801e+06 1.722
1 irregular 3 56 256 56 2 0.294 faster 0 1.296808e+06 1.296811e+06 2.656
1 irregular 3 57 257 65 2 0.399 faster 1 1.296812e+06 1.296815e+06 2.598
1 irregular 3 58 258 56 1 0.568 slower 1 1.296817e+06 1.296819e+06 2.191
1 irregular 3 59 259 64 2.500000e+00 0.240 slower 0 1.296820e+06 1.296823e+06 3.019
1 irregular 3 60 260 65 1.500000e+00 0.340 faster 1 1.296834e+06 1.296836e+06 2.149
1 irregular 3 61 261 56 1.500000e+00 0.180 slower 1 1.296840e+06 1.296842e+06 2.190
1 irregular 3 62 262 64 2 0.193 slower 0 1.296843e+06 1.296846e+06 2.680
1 irregular 3 63 263 65 1.500000e+00 0.178 faster 1 1.296850e+06 1.296852e+06 2.295
1 irregular 3 64 264 56 2 0.318 faster 0 1.296854e+06 1.296856e+06 2.656
1 irregular 3 65 265 55 1 0.450 slower 1 1.296860e+06 1.296862e+06 1.604
1 irregular 3 66 266 65 2.500000e+00 0.310 faster 1 1.296863e+06 1.296866e+06 3.130
1 irregular 3 67 267 56 1 0.316 slower 1 1.296877e+06 1.296879e+06 1.707
1 irregular 3 68 268 56 2.500000e+00 0.124 faster 0 1.296880e+06 1.296883e+06 3.284
1 irregular 3 69 269 65 1 0.404 faster 1 1.296886e+06 1.296888e+06 1.926
1 irregular 3 70 270 56 3 0.300 slower 1 1.296897e+06 1.296901e+06 3.522
1 irregular 3 71 271 64 1.500000e+00 0.164 slower 0 1.296904e+06 1.296906e+06 2.265
1 irregular 3 72 272 55 2 0.106 slower 1 1.296909e+06 1.296911e+06 2.775
1 irregular 3 73 273 56 1.500000e+00 0.448 slower 1 1.296914e+06 1.296916e+06 2.350
1 irregular 3 74 274 56 1.500000e+00 0.137 slower 1 1.296917e+06 1.296919e+06 2.237
1 irregular 3 75 275 63 2 0.286 faster 1 1.296921e+06 1.296924e+06 2.634
1 irregular 3 76 276 63 1.500000e+00 0.506 faster 1 1.296926e+06 1.296929e+06 2.746
1 irregular 3 77 277 58 2.500000e+00 0.543 slower 1 1.296931e+06 1.296935e+06 3.583
1 irregular 3 78 278 62 1.500000e+00 0.520 faster 1 1.296937e+06 1.296939e+06 2.231
1 irregular 3 79 279 59 2 0.454 slower 1 1.296942e+06 1.296945e+06 3.055
1 irregular 3 80 280 61 3 0.117 faster 1 1.296947e+06 1.296951e+06 4.073
1 irregular 3 81 281 61 2.500000e+00 0.336 faster 1 1.296954e+06 1.296957e+06 3.136
1 irregular 3 82 282 61 2 0.428 faster 1 1.296960e+06 1.296963e+06 2.777
1 irregular 3 83 283 61 3 0.151 slower 0 1.296964e+06 1.296968e+06 3.502
1 irregular 3 84 284 58 2.500000e+00 0.403 faster 0 1.296970e+06 1.296973e+06 2.980
1 irregular 3 85 285 57 1 0.140 faster 0 1.296975e+06 1.296977e+06 2.045
1 irregular 3 86 286 64 1 0.566 slower 0 1.296979e+06 1.296981e+06 2.074
1 irregular 3 87 287 65 2.500000e+00 0.249 faster 1 1.296991e+06 1.296994e+06 3.512
1 irregular 3 88 288 65 1 0.464 slower 0 1.296995e+06 1.296997e+06 2.146
1 irregular 3 89 289 54 2 0.335 faster 0 1.297000e+06 1.297002e+06 2.569
1 irregular 3 90 290 67 2 0.462 faster 1 1.297003e+06 1.297006e+06 3.107
1 irregular 3 91 291 54 3 0.207 slower 1 1.297015e+06 1.297020e+06 4.264
1 irregular 3 92 292 66 1.500000e+00 0.244 faster 1 1.297026e+06 1.297028e+06 2.434
1 irregular 3 93 293 55 1.500000e+00 0.374 slower 1 1.297029e+06 1.297031e+06 2.266
1 irregular 3 94 294 55 1 0.388 slower 1 1.297032e+06 1.297034e+06 1.738
1 irregular 3 95 295 64 2.500000e+00 0.170 faster 1 1.297035e+06 1.297038e+06 3.021
1 irregular 3 96 296 56 2.500000e+00 0.369 faster 0 1.297040e+06 1.297043e+06 3.212
1 irregular 3 97 297 55 3 0.447 faster 0 1.297045e+06 1.297049e+06 3.669
1 irregular 3 98 298 66 2.500000e+00 0.562 slower 0 1.297050e+06 1.297054e+06 3.391
1 irregular 3 99 299 53 1.500000e+00 0.311 slower 1 1.297056e+06 1.297059e+06 2.383
1 irregular 3 100 300 66 3 0.366 faster 1 1.297061e+06 1.297065e+06 3.621
1 regular 4 1 301 54 2 0.508 slower 1 1.297212e+06 1.297216e+06 3.813
1 regular 4 2 302 55 2 0.299 slower 1 1.297218e+06 1.297221e+06 2.615
1 regular 4 3 303 55 2 0.530 slower 1 1.297222e+06 1.297224e+06 2.728
1 regular 4 4 304 56 2 0.577 faster 0 1.297330e+06 1.297333e+06 3.273
1 regular 4 5 305 55 2 0.220 faster 0 1.297334e+06 1.297338e+06 3.673
1 regular 4 6 306 66 2 0.384 faster 1 1.297339e+06 1.297342e+06 2.854
1 regular 4 7 307 54 2 0.444 faster 0 1.297343e+06 1.297346e+06 2.961
1 regular 4 8 308 67 2 0.145 faster 1 1.297347e+06 1.297350e+06 3.033
1 regular 4 9 309 54 2 0.242 faster 0 1.297376e+06 1.297379e+06 3.126
1 regular 4 10 310 67 2 0.155 faster 1 1.297381e+06 1.297384e+06 3.081
1 regular 4 11 311 53 2 0.424 faster 0 1.297385e+06 1.297388e+06 2.673
1 regular 4 12 312 52 2 0.528 faster 0 1.297391e+06 1.297393e+06 2.909
1 regular 4 13 313 51 2 0.170 faster 0 1.297395e+06 1.297398e+06 3.130
1 regular 4 14 314 70 2 0.150 faster 1 1.297399e+06 1.297402e+06 2.858
1 regular 4 15 315 69 2 0.568 slower 0 1.297403e+06 1.297406e+06 2.599
1 regular 4 16 316 50 2 0.226 slower 1 1.297407e+06 1.297409e+06 2.627
1 regular 4 17 317 70 2 0.454 faster 1 1.297414e+06 1.297417e+06 2.693
1 regular 4 18 318 51 2 0.166 slower 1 1.297418e+06 1.297421e+06 2.988
1 regular 4 19 319 51 2 0.545 slower 1 1.297422e+06 1.297425e+06 2.592
1 regular 4 20 320 52 2 0.391 slower 1 1.297426e+06 1.297429e+06 2.678
1 regular 4 21 321 68 2 0.298 faster 1 1.297430e+06 1.297433e+06 2.633
1 regular 4 22 322 67 2 0.136 faster 1 1.297441e+06 1.297444e+06 2.626
1 regular 4 23 323 53 2 0.511 faster 0 1.297445e+06 1.297448e+06 2.953
1 regular 4 24 324 68 2 0.308 faster 1 1.297449e+06 1.297452e+06 2.624
1 regular 4 25 325 67 2 0.478 slower 0 1.297453e+06 1.297455e+06 2.546
1 regular 4 26 326 68 2 0.587 faster 1 1.297457e+06 1.297459e+06 2.628
1 regular 4 27 327 68 2 0.208 faster 1 1.297467e+06 1.297470e+06 3.045
1 regular 4 28 328 67 2 0.205 faster 1 1.297472e+06 1.297475e+06 2.754
1 regular 4 29 329 53 2 0.395 slower 1 1.297476e+06 1.297479e+06 3.132
1 regular 4 30 330 66 2 0.166 faster 1 1.297480e+06 1.297483e+06 2.913
1 regular 4 31 331 66 2 0.166 slower 0 1.297486e+06 1.297488e+06 2.828
1 regular 4 32 332 67 2 0.427 slower 0 1.297491e+06 1.297494e+06 2.800
1 regular 4 33 333 52 2 0.418 faster 0 1.297496e+06 1.297500e+06 3.997
1 regular 4 34 334 69 2 0.172 faster 1 1.297501e+06 1.297505e+06 3.415
1 regular 4 35 335 52 2 0.398 none 2 1.297506e+06 1.297511e+06 4.999
1 regular 4 36 336 52 2 0.504 faster 0 1.297513e+06 1.297516e+06 3.452
1 regular 4 37 337 69 2 0.254 faster 1 1.297517e+06 1.297520e+06 2.895
1 regular 4 38 338 51 2 0.444 slower 1 1.297521e+06 1.297524e+06 2.576
1 regular 4 39 339 68 2 0.442 faster 1 1.297525e+06 1.297527e+06 2.629
1 regular 4 40 340 52 2 0.382 slower 1 1.297529e+06 1.297532e+06 2.630
1 regular 4 41 341 53 2 0.554 slower 1 1.297533e+06 1.297536e+06 2.808
1 regular 4 42 342 67 2 0.185 faster 1 1.297539e+06 1.297542e+06 2.584
1 regular 4 43 343 66 2 0.485 slower 0 1.297544e+06 1.297547e+06 2.544
1 regular 4 44 344 53 2 0.284 slower 1 1.297548e+06 1.297551e+06 2.529
1 regular 4 45 345 53 2 0.419 slower 1 1.297552e+06 1.297555e+06 2.499
1 regular 4 46 346 54 2 0.320 slower 1 1.297556e+06 1.297558e+06 2.516
1 regular 4 47 347 54 2 0.558 slower 1 1.297560e+06 1.297563e+06 2.563
1 regular 4 48 348 55 2 0.346 faster 0 1.297564e+06 1.297567e+06 2.634
1 regular 4 49 349 54 2 0.225 slower 1 1.297568e+06 1.297571e+06 2.553
1 regular 4 50 350 66 2 0.285 slower 0 1.297572e+06 1.297575e+06 2.549
1 regular 4 51 351 53 2 0.497 slower 1 1.297576e+06 1.297579e+06 2.882
1 regular 4 52 352 66 2 0.466 faster 1 1.297581e+06 1.297584e+06 2.691
1 regular 4 53 353 66 2 0.276 faster 1 1.297585e+06 1.297588e+06 3.107
1 regular 4 54 354 55 2 0.164 slower 1 1.297589e+06 1.297591e+06 2.451
1 regular 4 55 355 65 2 0.224 faster 1 1.297592e+06 1.297595e+06 2.573
1 regular 4 56 356 64 2 0.136 faster 1 1.297596e+06 1.297599e+06 2.686
1 regular 4 57 357 64 2 0.318 faster 1 1.297601e+06 1.297603e+06 2.843
1 regular 4 58 358 63 2 0.549 slower 0 1.297605e+06 1.297608e+06 2.772
1 regular 4 59 359 64 2 0.449 slower 0 1.297610e+06 1.297613e+06 2.762
1 regular 4 60 360 55 2 0.401 slower 1 1.297615e+06 1.297617e+06 2.626
1 regular 4 61 361 65 2 0.500 faster 1 1.297619e+06 1.297622e+06 2.660
1 regular 4 62 362 64 2 0.558 slower 0 1.297623e+06 1.297626e+06 2.485
1 regular 4 63 363 65 2 0.598 faster 1 1.297629e+06 1.297632e+06 3.138
1 regular 4 64 364 65 2 0.164 slower 0 1.297638e+06 1.297641e+06 3.426
1 regular 4 65 365 54 2 0.340 faster 0 1.297643e+06 1.297646e+06 2.914
1 regular 4 66 366 53 2 0.527 faster 0 1.297649e+06 1.297652e+06 3.493
1 regular 4 67 367 52 2 0.531 slower 1 1.297654e+06 1.297656e+06 2.616
1 regular 4 68 368 53 2 0.351 faster 0 1.297660e+06 1.297663e+06 2.736
1 regular 4 69 369 52 2 0.538 faster 0 1.297664e+06 1.297667e+06 2.630
1 regular 4 70 370 51 2 0.158 slower 1 1.297670e+06 1.297672e+06 2.705
1 regular 4 71 371 51 2 0.217 slower 1 1.297675e+06 1.297677e+06 2.861
1 regular 4 72 372 52 2 0.273 slower 1 1.297678e+06 1.297681e+06 2.708
1 regular 4 73 373 68 2 0.594 faster 1 1.297682e+06 1.297685e+06 2.932
1 regular 4 74 374 53 2 0.556 slower 1 1.297686e+06 1.297689e+06 2.678
1 regular 4 75 375 53 2 0.483 faster 0 1.297710e+06 1.297713e+06 2.877
1 regular 4 76 376 68 2 0.240 faster 1 1.297714e+06 1.297716e+06 2.606
1 regular 4 77 377 67 2 0.312 faster 1 1.297717e+06 1.297720e+06 2.628
1 regular 4 78 378 67 2 0.210 faster 1 1.297722e+06 1.297724e+06 2.619
1 regular 4 79 379 54 2 0.176 slower 1 1.297726e+06 1.297729e+06 3.333
1 regular 4 80 380 54 2 0.272 faster 0 1.297730e+06 1.297733e+06 2.760
1 regular 4 81 381 67 2 0.160 faster 1 1.297734e+06 1.297737e+06 2.618
1 regular 4 82 382 66 2 0.594 slower 0 1.297738e+06 1.297741e+06 2.635
1 regular 4 83 383 67 2 0.139 faster 1 1.297742e+06 1.297745e+06 2.961
1 regular 4 84 384 53 2 0.131 slower 1 1.297746e+06 1.297749e+06 2.649
1 regular 4 85 385 66 2 0.233 faster 1 1.297750e+06 1.297752e+06 2.608
1 regular 4 86 386 54 2 0.386 slower 1 1.297756e+06 1.297759e+06 2.893
1 regular 4 87 387 65 2 0.555 faster 1 1.297760e+06 1.297762e+06 2.662
1 regular 4 88 388 65 2 0.313 faster 1 1.297765e+06 1.297768e+06 2.826
1 regular 4 89 389 64 2 0.254 faster 1 1.297772e+06 1.297775e+06 2.677
1 regular 4 90 390 56 2 0.449 slower 1 1.297777e+06 1.297780e+06 2.827
1 regular 4 91 391 57 2 0.333 faster 0 1.297784e+06 1.297787e+06 2.677
1 regular 4 92 392 56 2 0.141 slower 1 1.297790e+06 1.297792e+06 2.598
1 regular 4 93 393 64 2 0.518 faster 1 1.297801e+06 1.297804e+06 2.702
1 regular 4 94 394 57 2 0.539 faster 0 1.297805e+06 1.297808e+06 2.628
1 regular 4 95 395 56 2 0.498 faster 0 1.297823e+06 1.297826e+06 2.657
1 regular 4 96 396 65 2 0.209 faster 1 1.297827e+06 1.297829e+06 2.604
1 regular 4 97 397 65 2 0.320 faster 1 1.297831e+06 1.297834e+06 3.033
1 regular 4 98 398 64 2 0.496 slower 0 1.297835e+06 1.297838e+06 2.548
1 regular 4 99 399 65 2 0.569 faster 1 1.297839e+06 1.297842e+06 2.720
1 regular 4 100 400 65 2 0.111 faster 1 1.297850e+06 1.297852e+06 2.539
1 irregular 5 1 401 56 2 0.562 faster 0 1.297945e+06 1.297948e+06 3.287
1 irregular 5 2 402 55 2 0.101 faster 0 1.297949e+06 1.297952e+06 2.558
1 irregular 5 3 403 54 2.500000e+00 0.440 slower 1 1.297953e+06 1.297956e+06 2.995
1 irregular 5 4 404 66 2 0.558 faster 1 1.297957e+06 1.297960e+06 2.638
1 irregular 5 5 405 55 3 0.504 slower 1 1.297961e+06 1.297965e+06 3.889
1 irregular 5 6 406 55 3 0.549 slower 1 1.297967e+06 1.297970e+06 3.626
1 irregular 5 7 407 56 1.500000e+00 0.119 faster 0 1.297971e+06 1.297973e+06 2.094
1 irregular 5 8 408 55 2.500000e+00 0.133 slower 1 1.297974e+06 1.297977e+06 3.365
1 irregular 5 9 409 55 2.500000e+00 0.462 faster 0 1.297979e+06 1.297982e+06 3.200
1 irregular 5 10 410 66 1.500000e+00 0.302 faster 1 1.297983e+06 1.297985e+06 2.053
1 irregular 5 11 411 55 1 0.276 faster 0 1.297987e+06 1.297989e+06 1.638
1 irregular 5 12 412 66 1 0.492 faster 1 1.297990e+06 1.297992e+06 1.958
1 irregular 5 13 413 54 1.500000e+00 0.305 faster 0 1.297994e+06 1.297996e+06 2.219
1 irregular 5 14 414 67 1 0.564 slower 0 1.297997e+06 1.297999e+06 1.766
1 irregular 5 15 415 68 1 0.180 faster 1 1.298000e+06 1.298002e+06 1.617
1 irregular 5 16 416 53 2.500000e+00 0.471 slower 1 1.298003e+06 1.298007e+06 3.112
1 irregular 5 17 417 53 1 0.467 slower 1 1.298008e+06 1.298010e+06 1.726
1 irregular 5 18 418 54 1.500000e+00 0.436 faster 0 1.298011e+06 1.298013e+06 2.087
1 irregular 5 19 419 67 1 0.157 faster 1 1.298015e+06 1.298016e+06 1.684
1 irregular 5 20 420 67 2.500000e+00 0.365 slower 0 1.298018e+06 1.298021e+06 3.092
1 irregular 5 21 421 68 2 0.530 faster 1 1.298022e+06 1.298025e+06 2.553
1 irregular 5 22 422 53 2 0.153 slower 1 1.298026e+06 1.298029e+06 2.544
1 irregular 5 23 423 53 3 0.436 slower 1 1.298030e+06 1.298034e+06 3.818
1 irregular 5 24 424 66 2.500000e+00 0.293 faster 1 1.298035e+06 1.298038e+06 3.149
1 irregular 5 25 425 66 3 0.302 faster 1 1.298040e+06 1.298044e+06 3.831
1 irregular 5 26 426 65 3 0.335 faster 1 1.298047e+06 1.298050e+06 3.593
1 irregular 5 27 427 65 3 0.128 faster 1 1.298051e+06 1.298055e+06 4.041
1 irregular 5 28 428 56 2 0.599 slower 1 1.298058e+06 1.298061e+06 3.377
1 irregular 5 29 429 64 1 0.176 slower 0 1.298062e+06 1.298064e+06 1.923
1 irregular 5 30 430 65 2 0.561 slower 0 1.298065e+06 1.298068e+06 3.113
1 irregular 5 31 431 66 3 0.591 faster 1 1.298070e+06 1.298074e+06 3.680
1 irregular 5 32 432 65 3 0.204 faster 1 1.298076e+06 1.298080e+06 3.845
1 irregular 5 33 433 55 2.500000e+00 0.249 slower 1 1.298082e+06 1.298086e+06 3.713
1 irregular 5 34 434 64 1 0.236 slower 0 1.298087e+06 1.298089e+06 1.793
1 irregular 5 35 435 65 1 0.266 faster 1 1.298091e+06 1.298092e+06 1.536
1 irregular 5 36 436 65 1 0.573 slower 0 1.298093e+06 1.298096e+06 2.160
1 irregular 5 37 437 54 2 0.363 faster 0 1.298097e+06 1.298099e+06 2.749
1 irregular 5 38 438 67 2.500000e+00 0.283 faster 1 1.298103e+06 1.298106e+06 3.243
1 irregular 5 39 439 66 2.500000e+00 0.209 faster 1 1.298107e+06 1.298110e+06 3.232
1 irregular 5 40 440 54 3 0.386 slower 1 1.298111e+06 1.298115e+06 3.711
1 irregular 5 41 441 55 1 0.179 faster 0 1.298118e+06 1.298119e+06 1.689
1 irregular 5 42 442 66 2.500000e+00 0.104 slower 0 1.298121e+06 1.298124e+06 3.158
1 irregular 5 43 443 53 2.500000e+00 0.452 slower 1 1.298125e+06 1.298128e+06 3.345
1 irregular 5 44 444 53 3 0.580 slower 1 1.298139e+06 1.298143e+06 3.536
1 irregular 5 45 445 66 2.500000e+00 0.560 faster 1 1.298144e+06 1.298147e+06 3.119
1 irregular 5 46 446 54 3 0.370 slower 1 1.298149e+06 1.298152e+06 3.640
1 irregular 5 47 447 55 1 0.545 slower 1 1.298157e+06 1.298159e+06 1.655
1 irregular 5 48 448 65 2 0.148 slower 0 1.298161e+06 1.298163e+06 2.673
1 irregular 5 49 449 54 2.500000e+00 0.505 slower 1 1.298165e+06 1.298168e+06 3.073
1 irregular 5 50 450 55 1.500000e+00 0.516 slower 1 1.298171e+06 1.298173e+06 2.110
1 irregular 5 51 451 55 1 0.218 faster 0 1.298178e+06 1.298180e+06 1.974
1 irregular 5 52 452 54 2.500000e+00 0.510 faster 0 1.298183e+06 1.298186e+06 3.390
1 irregular 5 53 453 67 2 0.441 faster 1 1.298189e+06 1.298192e+06 2.641
1 irregular 5 54 454 54 2 0.427 slower 1 1.298193e+06 1.298196e+06 2.952
1 irregular 5 55 455 66 2.500000e+00 0.291 slower 0 1.298203e+06 1.298206e+06 3.181
1 irregular 5 56 456 53 3 0.209 slower 1 1.298215e+06 1.298219e+06 3.667
1 irregular 5 57 457 54 2.500000e+00 0.148 slower 1 1.298224e+06 1.298227e+06 3.161
1 irregular 5 58 458 54 3 0.475 faster 0 1.298229e+06 1.298232e+06 3.728
1 irregular 5 59 459 53 1.500000e+00 0.479 faster 0 1.298235e+06 1.298238e+06 2.166
1 irregular 5 60 460 68 1.500000e+00 0.361 faster 1 1.298239e+06 1.298241e+06 2.675
1 irregular 5 61 461 67 2.500000e+00 0.570 slower 0 1.298242e+06 1.298246e+06 3.288
1 irregular 5 62 462 68 2 0.500 faster 1 1.298247e+06 1.298250e+06 2.602
1 irregular 5 63 463 68 3 0.162 slower 0 1.298255e+06 1.298258e+06 3.553
1 irregular 5 64 464 69 2.500000e+00 0.207 faster 1 1.298259e+06 1.298262e+06 3.100
1 irregular 5 65 465 52 1 0.175 slower 1 1.298264e+06 1.298266e+06 2.176
1 irregular 5 66 466 52 2 0.245 faster 0 1.298267e+06 1.298270e+06 2.830
1 irregular 5 67 467 69 2 0.185 slower 0 1.298278e+06 1.298281e+06 3.094
1 irregular 5 68 468 70 1.500000e+00 0.138 faster 1 1.298284e+06 1.298286e+06 2.142
1 irregular 5 69 469 51 1 0.587 faster 0 1.298291e+06 1.298293e+06 1.658
1 irregular 5 70 470 70 2.500000e+00 0.431 faster 1 1.298294e+06 1.298297e+06 3.168
1 irregular 5 71 471 70 2 0.316 faster 1 1.298303e+06 1.298306e+06 3.001
1 irregular 5 72 472 51 2 0.148 slower 1 1.298308e+06 1.298311e+06 2.630
1 irregular 5 73 473 69 1.500000e+00 0.384 faster 1 1.298314e+06 1.298316e+06 2.496
1 irregular 5 74 474 52 1 0.537 faster 0 1.298318e+06 1.298320e+06 2.013
1 irregular 5 75 475 69 1.500000e+00 0.116 faster 1 1.298322e+06 1.298324e+06 2.253
1 irregular 5 76 476 51 1.500000e+00 0.299 slower 1 1.298326e+06 1.298328e+06 2.223
1 irregular 5 77 477 52 1.500000e+00 0.220 slower 1 1.298329e+06 1.298331e+06 2.275
1 irregular 5 78 478 52 2.500000e+00 0.563 slower 1 1.298333e+06 1.298336e+06 3.196
1 irregular 5 79 479 67 1.500000e+00 0.164 faster 1 1.298340e+06 1.298342e+06 2.181
1 irregular 5 80 480 67 1 0.345 faster 1 1.298343e+06 1.298345e+06 1.643
1 irregular 5 81 481 66 3 0.122 faster 1 1.298348e+06 1.298352e+06 3.790
1 irregular 5 82 482 66 3 0.309 slower 0 1.298357e+06 1.298360e+06 3.798
1 irregular 5 83 483 67 2 0.523 slower 0 1.298369e+06 1.298371e+06 2.886
1 irregular 5 84 484 68 1 0.168 faster 1 1.298372e+06 1.298374e+06 1.742
1 irregular 5 85 485 53 1.500000e+00 0.241 faster 0 1.298379e+06 1.298382e+06 2.758
1 irregular 5 86 486 68 2 0.580 slower 0 1.298384e+06 1.298387e+06 2.884
1 irregular 5 87 487 69 1.500000e+00 0.104 faster 1 1.298388e+06 1.298390e+06 2.015
1 irregular 5 88 488 51 3 0.531 slower 1 1.298392e+06 1.298396e+06 3.530
1 irregular 5 89 489 68 1.500000e+00 0.272 slower 0 1.298398e+06 1.298400e+06 2.620
1 irregular 5 90 490 69 1.500000e+00 0.112 faster 1 1.298401e+06 1.298403e+06 2.111
1 irregular 5 91 491 51 3 0.342 slower 1 1.298405e+06 1.298408e+06 3.565
1 irregular 5 92 492 52 2 0.565 slower 1 1.298410e+06 1.298413e+06 2.507
1 irregular 5 93 493 52 1.500000e+00 0.359 slower 1 1.298415e+06 1.298417e+06 2.142
1 irregular 5 94 494 67 3 0.383 faster 1 1.298419e+06 1.298423e+06 3.772
1 irregular 5 95 495 53 1 0.279 slower 1 1.298425e+06 1.298426e+06 1.681
1 irregular 5 96 496 54 2 0.250 slower 1 1.298429e+06 1.298431e+06 2.596
1 irregular 5 97 497 66 3 0.584 slower 0 1.298433e+06 1.298436e+06 3.732
1 irregular 5 98 498 53 1 0.229 slower 1 1.298440e+06 1.298441e+06 1.580
1 irregular 5 99 499 66 1.500000e+00 0.400 faster 1 1.298442e+06 1.298444e+06 2.034
1 irregular 5 100 500 54 1.500000e+00 0.300 faster 0 1.298446e+06 1.298449e+06 2.784
1 regular 6 1 501 66 1 0.583 faster 1 2.166296e+06 2.166298e+06 1.764
1 regular 6 2 502 66 1 0.529 faster 1 2.166299e+06 2.166301e+06 2.281
1 regular 6 3 503 56 1 0.143 faster 0 2.166302e+06 2.166304e+06 1.754
1 regular 6 4 504 66 1 0.355 faster 1 2.166305e+06 2.166307e+06 2.235
1 regular 6 5 505 66 1 0.464 faster 1 2.166308e+06 2.166310e+06 1.814
1 regular 6 6 506 56 1 0.147 faster 0 2.166311e+06 2.166313e+06 1.812
1 regular 6 7 507 66 1 0.580 faster 1 2.166314e+06 2.166316e+06 1.815
1 regular 6 8 508 66 1 0.475 slower 0 2.166318e+06 2.166320e+06 1.916
1 regular 6 9 509 52 1 0.504 faster 0 2.166321e+06 2.166322e+06 1.655
1 regular 6 10 510 70 1 0.275 faster 1 2.166323e+06 2.166325e+06 1.662
1 regular 6 11 511 52 1 0.323 slower 1 2.166326e+06 2.166328e+06 1.698
1 regular 6 12 512 68 1 0.271 faster 1 2.166329e+06 2.166331e+06 1.581
1 regular 6 13 513 53 1 0.426 faster 0 2.166332e+06 2.166333e+06 1.789
1 regular 6 14 514 68 1 0.522 faster 1 2.166335e+06 2.166337e+06 1.660
1 regular 6 15 515 52 1 0.377 slower 1 2.166338e+06 2.166340e+06 2.062
1 regular 6 16 516 53 1 0.274 faster 0 2.166341e+06 2.166343e+06 1.505
1 regular 6 17 517 52 1 0.251 slower 1 2.166344e+06 2.166346e+06 1.638
1 regular 6 18 518 52 1 0.400 slower 1 2.166347e+06 2.166348e+06 1.769
1 regular 6 19 519 67 1 0.339 faster 1 2.166349e+06 2.166351e+06 1.554
1 regular 6 20 520 53 1 0.511 slower 1 2.166352e+06 2.166354e+06 1.969
1 regular 6 21 521 66 1 0.581 faster 1 2.166356e+06 2.166357e+06 1.487
1 regular 6 22 522 54 1 0.524 faster 0 2.166365e+06 2.166367e+06 2.108
1 regular 6 23 523 67 1 0.168 faster 1 2.166368e+06 2.166370e+06 1.709
1 regular 6 24 524 54 1 0.146 faster 0 2.166377e+06 2.166379e+06 1.752
1 regular 6 25 525 53 1 0.434 slower 1 2.166381e+06 2.166382e+06 1.743
1 regular 6 26 526 67 1 0.267 faster 1 2.166383e+06 2.166385e+06 1.527
1 regular 6 27 527 66 1 0.217 faster 1 2.166386e+06 2.166388e+06 1.572
1 regular 6 28 528 66 1 0.198 faster 1 2.166398e+06 2.166400e+06 1.618
1 regular 6 29 529 55 1 0.575 faster 0 2.166404e+06 2.166406e+06 1.924
1 regular 6 30 530 54 1 0.207 slower 1 2.166407e+06 2.166409e+06 1.974
1 regular 6 31 531 66 1 0.106 faster 1 2.166411e+06 2.166412e+06 1.485
1 regular 6 32 532 65 1 0.146 faster 1 2.166421e+06 2.166423e+06 1.626
1 regular 6 33 533 65 1 0.584 slower 0 2.166425e+06 2.166427e+06 1.597
1 regular 6 34 534 66 1 0.316 slower 0 2.166428e+06 2.166430e+06 2.008
1 regular 6 35 535 53 1 0.391 slower 1 2.166439e+06 2.166440e+06 1.636
1 regular 6 36 536 54 1 0.119 slower 1 2.166451e+06 2.166453e+06 1.964
1 regular 6 37 537 66 1 0.596 faster 1 2.166474e+06 2.166476e+06 1.731
1 regular 6 38 538 65 1 0.441 faster 1 2.166477e+06 2.166479e+06 1.623
1 regular 6 39 539 55 1 0.161 slower 1 2.166480e+06 2.166482e+06 1.575
1 regular 6 40 540 64 1 0.515 slower 0 2.166483e+06 2.166485e+06 1.620
1 regular 6 41 541 65 1 0.300 faster 1 2.166486e+06 2.166488e+06 1.566
1 regular 6 42 542 65 1 0.595 faster 1 2.166489e+06 2.166491e+06 2.092
1 regular 6 43 543 56 1 0.566 faster 0 2.166493e+06 2.166495e+06 2.101
1 regular 6 44 544 65 1 0.344 faster 1 2.166503e+06 2.166505e+06 1.525
1 regular 6 45 545 55 1 0.585 faster 0 2.166508e+06 2.166509e+06 1.738
1 regular 6 46 546 66 1 0.267 slower 0 2.166510e+06 2.166512e+06 1.627
1 regular 6 47 547 53 1 0.241 slower 1 2.166513e+06 2.166514e+06 1.504
1 regular 6 48 548 54 1 0.505 faster 0 2.166522e+06 2.166524e+06 1.781
1 regular 6 49 549 67 1 0.219 slower 0 2.166527e+06 2.166529e+06 1.629
1 regular 6 50 550 52 1 0.297 slower 1 2.166535e+06 2.166537e+06 1.772
1 regular 6 51 551 68 1 0.139 slower 0 2.166539e+06 2.166540e+06 1.664
1 regular 6 52 552 51 1 0.186 slower 1 2.166551e+06 2.166553e+06 1.854
1 regular 6 53 553 52 1 0.118 slower 1 2.166555e+06 2.166557e+06 1.666
1 regular 6 54 554 68 1 0.326 faster 1 2.166562e+06 2.166563e+06 1.603
1 regular 6 55 555 67 1 0.336 faster 1 2.166565e+06 2.166567e+06 1.542
1 regular 6 56 556 53 1 0.124 slower 1 2.166567e+06 2.166569e+06 1.644
1 regular 6 57 557 66 1 0.161 faster 1 2.166577e+06 2.166579e+06 1.564
1 regular 6 58 558 54 1 0.287 slower 1 2.166580e+06 2.166582e+06 1.533
1 regular 6 59 559 55 1 0.584 faster 0 2.166583e+06 2.166585e+06 1.609
1 regular 6 60 560 66 1 0.401 slower 0 2.166588e+06 2.166590e+06 1.882
1 regular 6 61 561 53 1 0.484 slower 1 2.166593e+06 2.166595e+06 1.632
1 regular 6 62 562 67 1 0.161 faster 1 2.166596e+06 2.166597e+06 1.673
1 regular 6 63 563 54 1 0.131 slower 1 2.166607e+06 2.166609e+06 1.585
1 regular 6 64 564 54 1 0.580 slower 1 2.166610e+06 2.166612e+06 2.122
1 regular 6 65 565 65 1 0.381 slower 0 2.166613e+06 2.166615e+06 1.500
1 regular 6 66 566 66 1 0.311 slower 0 2.166617e+06 2.166618e+06 1.569
1 regular 6 67 567 53 1 0.146 slower 1 2.166620e+06 2.166621e+06 1.698
1 regular 6 68 568 53 1 0.525 slower 1 2.166623e+06 2.166624e+06 1.564
1 regular 6 69 569 54 1 0.239 slower 1 2.166625e+06 2.166627e+06 1.726
1 regular 6 70 570 54 1 0.576 slower 1 2.166628e+06 2.166631e+06 2.644
1 regular 6 71 571 65 1 0.117 slower 0 2.166632e+06 2.166633e+06 1.696
1 regular 6 72 572 66 1 0.533 faster 1 2.166635e+06 2.166637e+06 2.211
1 regular 6 73 573 54 1 0.517 faster 0 2.166638e+06 2.166640e+06 1.820
1 regular 6 74 574 53 1 0.263 faster 0 2.166648e+06 2.166650e+06 2.419
1 regular 6 75 575 68 1 0.209 slower 0 2.166651e+06 2.166653e+06 1.605
1 regular 6 76 576 51 1 0.526 slower 1 2.166654e+06 2.166656e+06 1.534
1 regular 6 77 577 52 1 0.318 slower 1 2.166657e+06 2.166659e+06 1.457
1 regular 6 78 578 68 1 0.217 faster 1 2.166660e+06 2.166661e+06 1.767
1 regular 6 79 579 53 1 0.389 slower 1 2.166662e+06 2.166665e+06 2.259
1 regular 6 80 580 53 1 0.292 slower 1 2.166666e+06 2.166667e+06 1.586
1 regular 6 81 581 54 1 0.600 slower 1 2.166668e+06 2.166670e+06 1.577
1 regular 6 82 582 66 1 0.227 slower 0 2.166671e+06 2.166673e+06 1.570
1 regular 6 83 583 53 1 0.439 slower 1 2.166680e+06 2.166682e+06 1.604
1 regular 6 84 584 66 1 0.358 faster 1 2.166683e+06 2.166685e+06 1.631
1 regular 6 85 585 66 1 0.573 faster 1 2.166686e+06 2.166687e+06 1.562
1 regular 6 86 586 65 1 0.202 faster 1 2.166689e+06 2.166690e+06 1.649
1 regular 6 87 587 55 1 0.450 faster 0 2.166692e+06 2.166693e+06 1.543
1 regular 6 88 588 66 1 0.326 faster 1 2.166695e+06 2.166696e+06 1.516
1 regular 6 89 589 55 1 0.368 faster 0 2.166700e+06 2.166702e+06 2.171
1 regular 6 90 590 66 1 0.258 faster 1 2.166709e+06 2.166710e+06 1.694
1 regular 6 91 591 66 1 0.204 faster 1 2.166711e+06 2.166713e+06 1.615
1 regular 6 92 592 65 1 0.209 faster 1 2.166714e+06 2.166715e+06 1.462
1 regular 6 93 593 65 1 0.471 faster 1 2.166721e+06 2.166723e+06 1.556
1 regular 6 94 594 56 1 0.150 faster 0 2.166728e+06 2.166730e+06 1.666
1 regular 6 95 595 55 1 0.262 slower 1 2.166739e+06 2.166741e+06 1.846
1 regular 6 96 596 55 1 0.321 slower 1 2.166742e+06 2.166744e+06 1.757
1 regular 6 97 597 64 1 0.271 faster 1 2.166745e+06 2.166747e+06 1.721
1 regular 6 98 598 64 1 0.442 faster 1 2.166748e+06 2.166749e+06 1.702
1 regular 6 99 599 57 1 0.413 faster 0 2.166751e+06 2.166752e+06 1.647
1 regular 6 100 600 56 1 0.474 faster 0 2.166754e+06 2.166755e+06 1.687
1 irregular 7 1 601 55 3 0.553 faster 0 2.166843e+06 2.166847e+06 4.140
1 irregular 7 2 602 54 1.500000e+00 0.586 faster 0 2.166850e+06 2.166852e+06 2.497
1 irregular 7 3 603 53 2 0.373 faster 0 2.166854e+06 2.166856e+06 2.579
1 irregular 7 4 604 52 1 0.384 faster 0 2.166858e+06 2.166859e+06 1.769
1 irregular 7 5 605 51 2.500000e+00 0.139 slower 1 2.166860e+06 2.166863e+06 3.185
1 irregular 7 6 606 69 1 0.373 faster 1 2.166864e+06 2.166866e+06 1.566
1 irregular 7 7 607 52 2 0.568 slower 1 2.166868e+06 2.166870e+06 2.682
1 irregular 7 8 608 52 1.500000e+00 0.338 slower 1 2.166871e+06 2.166874e+06 2.668
1 irregular 7 9 609 67 3 0.245 faster 1 2.166875e+06 2.166879e+06 3.596
1 irregular 7 10 610 53 2 0.143 slower 1 2.166880e+06 2.166883e+06 2.760
1 irregular 7 11 611 66 1.500000e+00 0.477 faster 1 2.166884e+06 2.166886e+06 2.143
1 irregular 7 12 612 66 2 0.268 slower 0 2.166888e+06 2.166890e+06 2.527
1 irregular 7 13 613 67 3 0.436 slower 0 2.166891e+06 2.166895e+06 3.718
1 irregular 7 14 614 52 1 0.272 slower 1 2.166896e+06 2.166898e+06 1.639
1 irregular 7 15 615 53 1.500000e+00 0.172 faster 0 2.166899e+06 2.166901e+06 1.985
1 irregular 7 16 616 68 1.500000e+00 0.251 faster 1 2.166902e+06 2.166904e+06 1.995
1 irregular 7 17 617 68 1.500000e+00 0.108 faster 1 2.166905e+06 2.166907e+06 2.072
1 irregular 7 18 618 53 2.500000e+00 0.335 slower 1 2.166908e+06 2.166911e+06 2.949
1 irregular 7 19 619 67 1.500000e+00 0.296 faster 1 2.166913e+06 2.166915e+06 2.122
1 irregular 7 20 620 54 2.500000e+00 0.402 faster 0 2.166916e+06 2.166919e+06 3.013
1 irregular 7 21 621 67 2.500000e+00 0.363 faster 1 2.166920e+06 2.166923e+06 3.021
1 irregular 7 22 622 67 2 0.302 faster 1 2.166925e+06 2.166927e+06 2.521
1 irregular 7 23 623 54 3 0.119 faster 0 2.166928e+06 2.166932e+06 3.598
1 irregular 7 24 624 53 2.500000e+00 0.156 faster 0 2.166933e+06 2.166936e+06 3.047
1 irregular 7 25 625 68 1 0.292 faster 1 2.166937e+06 2.166939e+06 1.547
1 irregular 7 26 626 68 2.500000e+00 0.274 faster 1 2.166940e+06 2.166943e+06 3.110
1 irregular 7 27 627 67 3 0.496 faster 1 2.166946e+06 2.166949e+06 3.572
1 irregular 7 28 628 53 3 0.321 faster 0 2.166951e+06 2.166955e+06 3.628
1 irregular 7 29 629 52 2 0.246 faster 0 2.166956e+06 2.166959e+06 2.726
1 irregular 7 30 630 51 1.500000e+00 0.512 slower 1 2.166962e+06 2.166964e+06 2.190
1 irregular 7 31 631 68 2 0.448 slower 0 2.166970e+06 2.166973e+06 2.646
1 irregular 7 32 632 51 1.500000e+00 0.126 slower 1 2.166974e+06 2.166977e+06 2.431
1 irregular 7 33 633 51 1 0.533 slower 1 2.166978e+06 2.166980e+06 2.002
1 irregular 7 34 634 68 2 0.466 faster 1 2.166982e+06 2.166984e+06 2.560
1 irregular 7 35 635 68 3 0.480 faster 1 2.166991e+06 2.166994e+06 3.555
1 irregular 7 36 636 53 3 0.369 faster 0 2.167003e+06 2.167006e+06 3.553
1 irregular 7 37 637 52 3 0.426 slower 1 2.167008e+06 2.167012e+06 3.687
1 irregular 7 38 638 52 3 0.496 slower 1 2.167034e+06 2.167037e+06 3.940
1 irregular 7 39 639 67 2 0.562 slower 0 2.167039e+06 2.167042e+06 3.133
1 irregular 7 40 640 68 3 0.553 faster 1 2.167043e+06 2.167047e+06 3.549
1 irregular 7 41 641 68 2 0.514 faster 1 2.167048e+06 2.167051e+06 2.512
1 irregular 7 42 642 53 3 0.589 slower 1 2.167053e+06 2.167057e+06 3.897
1 irregular 7 43 643 67 2.500000e+00 0.447 faster 1 2.167058e+06 2.167061e+06 2.959
1 irregular 7 44 644 66 3 0.582 faster 1 2.167063e+06 2.167066e+06 3.543
1 irregular 7 45 645 54 2.500000e+00 0.459 faster 0 2.167068e+06 2.167071e+06 3.049
1 irregular 7 46 646 67 1 0.501 faster 1 2.167073e+06 2.167074e+06 1.547
1 irregular 7 47 647 66 2.500000e+00 0.416 faster 1 2.167076e+06 2.167079e+06 2.949
1 irregular 7 48 648 66 2.500000e+00 0.273 faster 1 2.167080e+06 2.167083e+06 2.993
1 irregular 7 49 649 65 3 0.346 faster 1 2.167088e+06 2.167092e+06 3.523
1 irregular 7 50 650 65 2 0.180 faster 1 2.167096e+06 2.167098e+06 2.636
1 irregular 7 51 651 56 2 0.329 faster 0 2.167100e+06 2.167103e+06 2.505
1 irregular 7 52 652 55 2.500000e+00 0.187 slower 1 2.167110e+06 2.167113e+06 3.286
1 irregular 7 53 653 65 1.500000e+00 0.287 slower 0 2.167118e+06 2.167120e+06 2.212
1 irregular 7 54 654 54 2 0.293 slower 1 2.167121e+06 2.167124e+06 2.647
1 irregular 7 55 655 55 3 0.406 slower 1 2.167126e+06 2.167129e+06 3.625
1 irregular 7 56 656 65 1.500000e+00 0.102 faster 1 2.167130e+06 2.167133e+06 2.082
1 irregular 7 57 657 56 1.500000e+00 0.382 faster 0 2.167137e+06 2.167139e+06 2.305
1 irregular 7 58 658 65 1 0.276 slower 0 2.167140e+06 2.167142e+06 1.712
1 irregular 7 59 659 66 2 0.446 faster 1 2.167145e+06 2.167148e+06 2.567
1 irregular 7 60 660 54 1.500000e+00 0.235 slower 1 2.167156e+06 2.167158e+06 2.264
1 irregular 7 61 661 55 2.500000e+00 0.238 slower 1 2.167159e+06 2.167162e+06 3.218
1 irregular 7 62 662 65 1 0.383 slower 0 2.167165e+06 2.167167e+06 1.591
1 irregular 7 63 663 54 1 0.521 slower 1 2.167168e+06 2.167169e+06 1.562
1 irregular 7 64 664 65 3 0.487 faster 1 2.167171e+06 2.167175e+06 3.704
1 irregular 7 65 665 55 1 0.364 faster 0 2.167180e+06 2.167181e+06 1.733
1 irregular 7 66 666 54 1.500000e+00 0.498 slower 1 2.167182e+06 2.167185e+06 2.234
1 irregular 7 67 667 55 2 0.521 faster 0 2.167189e+06 2.167192e+06 3.000
1 irregular 7 68 668 54 1.500000e+00 0.598 slower 1 2.167198e+06 2.167200e+06 2.186
1 irregular 7 69 669 66 1.500000e+00 0.368 faster 1 2.167202e+06 2.167204e+06 2.239
1 irregular 7 70 670 65 2 0.418 faster 1 2.167212e+06 2.167215e+06 2.785
1 irregular 7 71 671 65 1 0.541 faster 1 2.167216e+06 2.167217e+06 1.620
1 irregular 7 72 672 64 1.500000e+00 0.118 slower 0 2.167219e+06 2.167221e+06 2.138
1 irregular 7 73 673 65 2.500000e+00 0.438 faster 1 2.167223e+06 2.167226e+06 3.036
1 irregular 7 74 674 65 2.500000e+00 0.129 faster 1 2.167230e+06 2.167233e+06 3.049
1 irregular 7 75 675 64 3 0.143 faster 1 2.167236e+06 2.167240e+06 3.553
1 irregular 7 76 676 64 1 0.177 faster 1 2.167246e+06 2.167247e+06 1.558
1 irregular 7 77 677 63 2.500000e+00 0.495 faster 1 2.167249e+06 2.167252e+06 3.086
1 irregular 7 78 678 57 2 0.575 faster 0 2.167254e+06 2.167257e+06 2.473
1 irregular 7 79 679 56 3 0.349 faster 0 2.167258e+06 2.167262e+06 3.678
1 irregular 7 80 680 65 1 0.230 faster 1 2.167263e+06 2.167265e+06 1.553
1 irregular 7 81 681 64 1 0.596 slower 0 2.167266e+06 2.167268e+06 1.713
1 irregular 7 82 682 65 3 0.102 faster 1 2.167272e+06 2.167276e+06 3.743
1 irregular 7 83 683 65 1 0.340 faster 1 2.167277e+06 2.167279e+06 1.629
1 irregular 7 84 684 56 2.500000e+00 0.436 faster 0 2.167284e+06 2.167288e+06 3.248
1 irregular 7 85 685 55 1 0.296 faster 0 2.167290e+06 2.167292e+06 1.659
1 irregular 7 86 686 66 1.500000e+00 0.210 slower 0 2.167293e+06 2.167295e+06 2.337
1 irregular 7 87 687 67 2.500000e+00 0.418 slower 0 2.167297e+06 2.167300e+06 3.272
1 irregular 7 88 688 52 2 0.430 slower 1 2.167302e+06 2.167304e+06 2.667
1 irregular 7 89 689 52 1 0.408 slower 1 2.167306e+06 2.167308e+06 1.743
1 irregular 7 90 690 53 1 0.132 slower 1 2.167309e+06 2.167311e+06 1.927
1 irregular 7 91 691 53 1 0.496 slower 1 2.167314e+06 2.167316e+06 2.179
1 irregular 7 92 692 66 2.500000e+00 0.389 faster 1 2.167317e+06 2.167320e+06 3.218
1 irregular 7 93 693 54 1 0.168 slower 1 2.167321e+06 2.167322e+06 1.639
1 irregular 7 94 694 65 1.500000e+00 0.597 faster 1 2.167327e+06 2.167329e+06 2.090
1 irregular 7 95 695 55 2.500000e+00 0.190 faster 0 2.167330e+06 2.167334e+06 3.234
1 irregular 7 96 696 66 2 0.524 faster 1 2.167338e+06 2.167341e+06 2.609
1 irregular 7 97 697 55 3 0.485 slower 1 2.167343e+06 2.167347e+06 4.103
1 irregular 7 98 698 55 2 0.248 slower 1 2.167348e+06 2.167350e+06 2.641
1 irregular 7 99 699 56 1.500000e+00 0.220 faster 0 2.167351e+06 2.167354e+06 2.008
1 irregular 7 100 700 55 2.500000e+00 0.113 slower 1 2.167355e+06 2.167358e+06 3.637
1 regular 8 1 701 55 1.500000e+00 0.123 slower 1 2.167471e+06 2.167474e+06 2.480
1 regular 8 2 702 64 1.500000e+00 0.501 faster 1 2.167476e+06 2.167479e+06 2.852
1 regular 8 3 703 56 1.500000e+00 0.217 slower 1 2.167481e+06 2.167483e+06 2.618
1 regular 8 4 704 57 1.500000e+00 0.238 slower 1 2.167484e+06 2.167486e+06 2.239
1 regular 8 5 705 63 1.500000e+00 0.378 slower 0 2.167487e+06 2.167490e+06 2.355
1 regular 8 6 706 64 1.500000e+00 0.130 slower 0 2.167491e+06 2.167493e+06 2.450
1 regular 8 7 707 55 1.500000e+00 0.196 faster 0 2.167495e+06 2.167497e+06 2.108
1 regular 8 8 708 54 1.500000e+00 0.519 faster 0 2.167498e+06 2.167500e+06 2.185
1 regular 8 9 709 67 1.500000e+00 0.346 faster 1 2.167502e+06 2.167504e+06 2.159
1 regular 8 10 710 54 1.500000e+00 0.579 faster 0 2.167505e+06 2.167507e+06 2.093
1 regular 8 11 711 67 1.500000e+00 0.111 slower 0 2.167508e+06 2.167510e+06 1.964
1 regular 8 12 712 52 1.500000e+00 0.584 slower 1 2.167511e+06 2.167513e+06 2.057
1 regular 8 13 713 52 1.500000e+00 0.379 slower 1 2.167514e+06 2.167516e+06 1.923
1 regular 8 14 714 53 1.500000e+00 0.123 slower 1 2.167518e+06 2.167520e+06 2.262
1 regular 8 15 715 67 1.500000e+00 0.397 faster 1 2.167521e+06 2.167523e+06 2.002
1 regular 8 16 716 66 1.500000e+00 0.527 faster 1 2.167525e+06 2.167527e+06 2.026
1 regular 8 17 717 54 1.500000e+00 0.179 slower 1 2.167527e+06 2.167529e+06 2.005
1 regular 8 18 718 65 1.500000e+00 0.335 slower 0 2.167531e+06 2.167533e+06 2.327
1 regular 8 19 719 54 1.500000e+00 0.274 faster 0 2.167534e+06 2.167536e+06 2.252
1 regular 8 20 720 53 1.500000e+00 0.231 slower 1 2.167537e+06 2.167539e+06 2.369
1 regular 8 21 721 53 1.500000e+00 0.420 slower 1 2.167541e+06 2.167543e+06 2.145
1 regular 8 22 722 54 1.500000e+00 0.341 slower 1 2.167544e+06 2.167546e+06 2.085
1 regular 8 23 723 54 1.500000e+00 0.507 slower 1 2.167550e+06 2.167553e+06 2.676
1 regular 8 24 724 55 1.500000e+00 0.148 slower 1 2.167554e+06 2.167556e+06 2.119
1 regular 8 25 725 65 1.500000e+00 0.258 faster 1 2.167557e+06 2.167559e+06 2.037
1 regular 8 26 726 64 1.500000e+00 0.107 slower 0 2.167561e+06 2.167563e+06 2.204
1 regular 8 27 727 55 1.500000e+00 0.276 faster 0 2.167564e+06 2.167566e+06 2.403
1 regular 8 28 728 66 1.500000e+00 0.136 faster 1 2.167568e+06 2.167570e+06 2.256
1 regular 8 29 729 54 1.500000e+00 0.450 slower 1 2.167572e+06 2.167574e+06 2.417
1 regular 8 30 730 55 1.500000e+00 0.290 slower 1 2.167575e+06 2.167578e+06 2.366
1 regular 8 31 731 55 1.500000e+00 0.111 slower 1 2.167579e+06 2.167581e+06 2.075
1 regular 8 32 732 56 1.500000e+00 0.532 slower 1 2.167584e+06 2.167586e+06 2.096
1 regular 8 33 733 64 1.500000e+00 0.303 faster 1 2.167590e+06 2.167592e+06 2.080
1 regular 8 34 734 63 1.500000e+00 0.393 faster 1 2.167593e+06 2.167595e+06 2.164
1 regular 8 35 735 57 1.500000e+00 0.117 faster 0 2.167596e+06 2.167598e+06 2.585
1 regular 8 36 736 64 1.500000e+00 0.167 faster 1 2.167599e+06 2.167601e+06 2.115
1 regular 8 37 737 63 1.500000e+00 0.435 slower 0 2.167602e+06 2.167605e+06 2.378
1 regular 8 38 738 64 1.500000e+00 0.429 faster 1 2.167606e+06 2.167609e+06 2.751
1 regular 8 39 739 64 1.500000e+00 0.261 faster 1 2.167611e+06 2.167613e+06 2.450
1 regular 8 40 740 57 1.500000e+00 0.278 slower 1 2.167615e+06 2.167618e+06 2.521
1 regular 8 41 741 63 1.500000e+00 0.185 faster 1 2.167626e+06 2.167628e+06 2.145
1 regular 8 42 742 62 1.500000e+00 0.270 faster 1 2.167629e+06 2.167631e+06 2.066
1 regular 8 43 743 62 1.500000e+00 0.309 slower 0 2.167632e+06 2.167634e+06 2.102
1 regular 8 44 744 57 1.500000e+00 0.470 slower 1 2.167635e+06 2.167638e+06 2.375
1 regular 8 45 745 62 1.500000e+00 0.129 faster 1 2.167643e+06 2.167645e+06 2.111
1 regular 8 46 746 62 1.500000e+00 0.111 faster 1 2.167648e+06 2.167651e+06 2.059
1 regular 8 47 747 59 1.500000e+00 0.379 faster 0 2.167655e+06 2.167657e+06 2.073
1 regular 8 48 748 62 1.500000e+00 0.547 faster 1 2.167658e+06 2.167660e+06 2.015
1 regular 8 49 749 58 1.500000e+00 0.451 faster 0 2.167662e+06 2.167664e+06 2.167
1 regular 8 50 750 63 1.500000e+00 0.175 faster 1 2.167665e+06 2.167667e+06 2.074
1 regular 8 51 751 58 1.500000e+00 0.497 faster 0 2.167669e+06 2.167671e+06 2.134
1 regular 8 52 752 57 1.500000e+00 0.141 faster 0 2.167672e+06 2.167674e+06 2.029
1 regular 8 53 753 56 1.500000e+00 0.429 faster 0 2.167676e+06 2.167678e+06 2.124
1 regular 8 54 754 55 1.500000e+00 0.147 faster 0 2.167682e+06 2.167685e+06 2.456
1 regular 8 55 755 66 1.500000e+00 0.364 slower 0 2.167686e+06 2.167688e+06 2.019
1 regular 8 56 756 67 1.500000e+00 0.241 faster 1 2.167695e+06 2.167697e+06 2.035
1 regular 8 57 757 67 1.500000e+00 0.190 faster 1 2.167702e+06 2.167705e+06 2.126
1 regular 8 58 758 54 1.500000e+00 0.575 slower 1 2.167706e+06 2.167708e+06 2.335
1 regular 8 59 759 54 1.500000e+00 0.113 slower 1 2.167711e+06 2.167714e+06 2.812
1 regular 8 60 760 55 1.500000e+00 0.204 slower 1 2.167715e+06 2.167717e+06 2.272
1 regular 8 61 761 55 1.500000e+00 0.286 faster 0 2.167718e+06 2.167720e+06 2.063
1 regular 8 62 762 54 1.500000e+00 0.210 faster 0 2.167723e+06 2.167725e+06 2.077
1 regular 8 63 763 53 1.500000e+00 0.495 faster 0 2.167730e+06 2.167732e+06 2.210
1 regular 8 64 764 52 1.500000e+00 0.228 slower 1 2.167737e+06 2.167740e+06 2.427
1 regular 8 65 765 67 1.500000e+00 0.512 faster 1 2.167748e+06 2.167750e+06 2.090
1 regular 8 66 766 67 1.500000e+00 0.260 faster 1 2.167751e+06 2.167753e+06 2.163
1 regular 8 67 767 66 1.500000e+00 0.393 faster 1 2.167754e+06 2.167756e+06 2.068
1 regular 8 68 768 66 1.500000e+00 0.547 slower 0 2.167760e+06 2.167762e+06 2.227
1 regular 8 69 769 53 1.500000e+00 0.504 slower 1 2.167763e+06 2.167765e+06 2.155
1 regular 8 70 770 66 1.500000e+00 0.389 faster 1 2.167767e+06 2.167769e+06 2.294
1 regular 8 71 771 54 1.500000e+00 0.500 slower 1 2.167771e+06 2.167773e+06 2.020
1 regular 8 72 772 65 1.500000e+00 0.463 faster 1 2.167774e+06 2.167776e+06 2.051
1 regular 8 73 773 65 1.500000e+00 0.581 faster 1 2.167779e+06 2.167782e+06 2.134
1 regular 8 74 774 56 1.500000e+00 0.593 faster 0 2.167784e+06 2.167787e+06 2.247
1 regular 8 75 775 65 1.500000e+00 0.318 faster 1 2.167792e+06 2.167794e+06 2.119
1 regular 8 76 776 65 1.500000e+00 0.233 faster 1 2.167795e+06 2.167797e+06 2.186
1 regular 8 77 777 56 1.500000e+00 0.324 faster 0 2.167798e+06 2.167801e+06 2.622
1 regular 8 78 778 55 1.500000e+00 0.545 faster 0 2.167807e+06 2.167809e+06 2.067
1 regular 8 79 779 54 1.500000e+00 0.228 slower 1 2.167813e+06 2.167815e+06 2.232
1 regular 8 80 780 54 1.500000e+00 0.211 slower 1 2.167816e+06 2.167818e+06 2.019
1 regular 8 81 781 65 1.500000e+00 0.279 slower 0 2.167820e+06 2.167822e+06 2.225
1 regular 8 82 782 66 1.500000e+00 0.142 faster 1 2.167823e+06 2.167825e+06 2.039
1 regular 8 83 783 66 1.500000e+00 0.528 faster 1 2.167827e+06 2.167829e+06 2.109
1 regular 8 84 784 65 1.500000e+00 0.413 slower 0 2.167831e+06 2.167834e+06 2.818
1 regular 8 85 785 66 1.500000e+00 0.517 faster 1 2.167835e+06 2.167837e+06 2.166
1 regular 8 86 786 66 1.500000e+00 0.404 faster 1 2.167840e+06 2.167842e+06 2.112
1 regular 8 87 787 55 1.500000e+00 0.325 slower 1 2.167843e+06 2.167846e+06 2.115
1 regular 8 88 788 65 1.500000e+00 0.346 slower 0 2.167847e+06 2.167849e+06 2.152
1 regular 8 89 789 54 1.500000e+00 0.397 faster 0 2.167852e+06 2.167855e+06 2.591
1 regular 8 90 790 67 1.500000e+00 0.344 slower 0 2.167857e+06 2.167860e+06 2.272
1 regular 8 91 791 52 1.500000e+00 0.138 slower 1 2.167864e+06 2.167866e+06 2.116
1 regular 8 92 792 67 1.500000e+00 0.449 slower 0 2.167868e+06 2.167870e+06 2.054
1 regular 8 93 793 52 1.500000e+00 0.111 slower 1 2.167872e+06 2.167874e+06 2.153
1 regular 8 94 794 68 1.500000e+00 0.288 faster 1 2.167880e+06 2.167882e+06 2.079
1 regular 8 95 795 53 1.500000e+00 0.325 slower 1 2.167883e+06 2.167885e+06 2.195
1 regular 8 96 796 53 1.500000e+00 0.584 faster 0 2.167887e+06 2.167889e+06 2.578
1 regular 8 97 797 68 1.500000e+00 0.354 faster 1 2.167891e+06 2.167893e+06 2.110
1 regular 8 98 798 67 1.500000e+00 0.192 faster 1 2.167894e+06 2.167896e+06 2.012
1 regular 8 99 799 67 1.500000e+00 0.481 faster 1 2.167897e+06 2.167899e+06 2.083
1 regular 8 100 800 66 1.500000e+00 0.425 slower 0 2.167901e+06 2.167903e+06 2.077
1 irregular 9 1 801 53 2 0.204 slower 1 2.168172e+06 2.168175e+06 3.027
1 irregular 9 2 802 67 3 0.123 faster 1 2.168176e+06 2.168180e+06 3.988
1 irregular 9 3 803 66 1.500000e+00 0.218 none 2 2.168181e+06 2.168186e+06 4.500
1 irregular 9 4 804 66 1 0.545 faster 1 2.168187e+06 2.168189e+06 2.142
1 irregular 9 5 805 54 1 0.389 slower 1 2.168190e+06 2.168192e+06 1.635
1 irregular 9 6 806 55 2 0.312 slower 1 2.168193e+06 2.168196e+06 2.987
1 irregular 9 7 807 55 2 0.493 faster 0 2.168197e+06 2.168199e+06 2.676
1 irregular 9 8 808 66 1 0.266 faster 1 2.168200e+06 2.168202e+06 1.695
1 irregular 9 9 809 55 2.500000e+00 0.136 faster 0 2.168203e+06 2.168206e+06 3.261
1 irregular 9 10 810 66 2 0.582 faster 1 2.168208e+06 2.168211e+06 2.726
1 irregular 9 11 811 54 3 0.236 faster 0 2.168212e+06 2.168216e+06 4.048
1 irregular 9 12 812 53 1 0.364 faster 0 2.168217e+06 2.168218e+06 1.745
1 irregular 9 13 813 52 1.500000e+00 0.142 slower 1 2.168220e+06 2.168222e+06 1.981
1 irregular 9 14 814 67 2 0.288 faster 1 2.168223e+06 2.168225e+06 2.682
1 irregular 9 15 815 53 2.500000e+00 0.239 slower 1 2.168226e+06 2.168230e+06 3.612
1 irregular 9 16 816 54 1.500000e+00 0.244 faster 0 2.168231e+06 2.168233e+06 2.264
1 irregular 9 17 817 53 3 0.251 slower 1 2.168235e+06 2.168238e+06 3.668
1 irregular 9 18 818 53 2.500000e+00 0.105 faster 0 2.168239e+06 2.168243e+06 3.454
1 irregular 9 19 819 68 1 0.396 faster 1 2.168244e+06 2.168246e+06 1.553
1 irregular 9 20 820 53 1 0.486 slower 1 2.168247e+06 2.168248e+06 1.645
1 irregular 9 21 821 67 2.500000e+00 0.290 slower 0 2.168249e+06 2.168252e+06 3.019
1 irregular 9 22 822 68 1 0.201 faster 1 2.168255e+06 2.168257e+06 1.576
1 irregular 9 23 823 67 2 0.327 slower 0 2.168258e+06 2.168261e+06 2.520
1 irregular 9 24 824 68 2.500000e+00 0.314 faster 1 2.168262e+06 2.168265e+06 3.093
1 irregular 9 25 825 52 3 0.367 slower 1 2.168266e+06 2.168269e+06 3.637
1 irregular 9 26 826 53 1.500000e+00 0.314 slower 1 2.168271e+06 2.168273e+06 2.146
1 irregular 9 27 827 67 1 0.113 faster 1 2.168274e+06 2.168275e+06 1.517
1 irregular 9 28 828 66 1.500000e+00 0.155 faster 1 2.168276e+06 2.168278e+06 2.105
1 irregular 9 29 829 66 2.500000e+00 0.226 faster 1 2.168279e+06 2.168282e+06 3.200
1 irregular 9 30 830 55 2 0.113 faster 0 2.168284e+06 2.168287e+06 2.889
1 irregular 9 31 831 66 3 0.150 faster 1 2.168288e+06 2.168292e+06 3.593
1 irregular 9 32 832 54 1.500000e+00 0.257 slower 1 2.168293e+06 2.168295e+06 2.090
1 irregular 9 33 833 55 1.500000e+00 0.580 faster 0 2.168296e+06 2.168298e+06 2.011
1 irregular 9 34 834 54 1 0.368 faster 0 2.168299e+06 2.168301e+06 1.652
1 irregular 9 35 835 67 2 0.401 faster 1 2.168302e+06 2.168305e+06 2.600
1 irregular 9 36 836 53 2.500000e+00 0.425 faster 0 2.168306e+06 2.168310e+06 3.310
1 irregular 9 37 837 68 2 0.340 faster 1 2.168311e+06 2.168313e+06 2.574
1 irregular 9 38 838 53 2.500000e+00 0.532 slower 1 2.168314e+06 2.168318e+06 3.342
1 irregular 9 39 839 53 3 0.420 faster 0 2.168319e+06 2.168323e+06 3.657
1 irregular 9 40 840 52 3 0.599 slower 1 2.168324e+06 2.168328e+06 3.884
1 irregular 9 41 841 53 1.500000e+00 0.499 slower 1 2.168330e+06 2.168332e+06 2.222
1 irregular 9 42 842 67 1.500000e+00 0.595 slower 0 2.168334e+06 2.168336e+06 2.252
1 irregular 9 43 843 52 2.500000e+00 0.234 slower 1 2.168337e+06 2.168341e+06 3.433
1 irregular 9 44 844 67 1 0.166 slower 0 2.168342e+06 2.168344e+06 1.750
1 irregular 9 45 845 52 2.500000e+00 0.460 slower 1 2.168345e+06 2.168348e+06 3.158
1 irregular 9 46 846 68 3 0.253 slower 0 2.168350e+06 2.168353e+06 3.962
1 irregular 9 47 847 51 2.500000e+00 0.387 slower 1 2.168355e+06 2.168358e+06 3.374
1 irregular 9 48 848 68 2.500000e+00 0.182 faster 1 2.168360e+06 2.168363e+06 3.109
1 irregular 9 49 849 68 2.500000e+00 0.226 faster 1 2.168364e+06 2.168367e+06 3.126
1 irregular 9 50 850 53 1 0.266 slower 1 2.168372e+06 2.168373e+06 1.933
1 irregular 9 51 851 67 2 0.338 faster 1 2.168375e+06 2.168377e+06 2.819
1 irregular 9 52 852 54 1.500000e+00 0.430 slower 1 2.168379e+06 2.168381e+06 2.240
1 irregular 9 53 853 66 1.500000e+00 0.308 faster 1 2.168382e+06 2.168384e+06 2.167
1 irregular 9 54 854 55 2 0.271 slower 1 2.168388e+06 2.168391e+06 2.698
1 irregular 9 55 855 65 1.500000e+00 0.226 faster 1 2.168392e+06 2.168395e+06 2.069
1 irregular 9 56 856 64 1.500000e+00 0.102 slower 0 2.168397e+06 2.168400e+06 2.193
1 irregular 9 57 857 55 3 0.275 slower 1 2.168405e+06 2.168410e+06 4.374
1 irregular 9 58 858 55 2.500000e+00 0.389 faster 0 2.168418e+06 2.168421e+06 3.170
1 irregular 9 59 859 66 1.500000e+00 0.434 faster 1 2.168422e+06 2.168425e+06 2.222
1 irregular 9 60 860 55 1.500000e+00 0.588 slower 1 2.168429e+06 2.168431e+06 2.041
1 irregular 9 61 861 65 3 0.265 slower 0 2.168432e+06 2.168435e+06 3.562
1 irregular 9 62 862 54 3 0.571 slower 1 2.168446e+06 2.168449e+06 3.692
1 irregular 9 63 863 65 2.500000e+00 0.141 faster 1 2.168450e+06 2.168454e+06 3.662
1 irregular 9 64 864 55 2 0.396 faster 0 2.168459e+06 2.168462e+06 2.607
1 irregular 9 65 865 54 2 0.214 slower 1 2.168463e+06 2.168465e+06 2.458
1 irregular 9 66 866 65 3 0.585 slower 0 2.168467e+06 2.168471e+06 3.581
1 irregular 9 67 867 66 3 0.396 faster 1 2.168473e+06 2.168477e+06 3.831
1 irregular 9 68 868 54 1 0.358 faster 0 2.168480e+06 2.168482e+06 1.692
1 irregular 9 69 869 53 2 0.591 slower 1 2.168483e+06 2.168486e+06 2.777
1 irregular 9 70 870 54 1 0.248 slower 1 2.168491e+06 2.168493e+06 1.737
1 irregular 9 71 871 66 2.500000e+00 0.216 faster 1 2.168494e+06 2.168497e+06 3.125
1 irregular 9 72 872 65 1.500000e+00 0.247 faster 1 2.168498e+06 2.168500e+06 2.053
1 irregular 9 73 873 65 2 0.156 slower 0 2.168501e+06 2.168504e+06 2.523
1 irregular 9 74 874 66 2 0.366 slower 0 2.168507e+06 2.168509e+06 2.786
1 irregular 9 75 875 67 1 0.165 slower 0 2.168514e+06 2.168516e+06 1.614
1 irregular 9 76 876 52 3 0.596 slower 1 2.168517e+06 2.168521e+06 3.552
1 irregular 9 77 877 67 1.500000e+00 0.428 slower 0 2.168523e+06 2.168525e+06 2.441
1 irregular 9 78 878 52 2 0.538 slower 1 2.168529e+06 2.168531e+06 2.636
1 irregular 9 79 879 68 1 0.195 faster 1 2.168535e+06 2.168537e+06 1.662
1 irregular 9 80 880 53 3 0.401 slower 1 2.168541e+06 2.168545e+06 3.780
1 irregular 9 81 881 67 1 0.106 faster 1 2.168553e+06 2.168554e+06 1.655
1 irregular 9 82 882 66 1.500000e+00 0.518 faster 1 2.168556e+06 2.168558e+06 2.067
1 irregular 9 83 883 54 1.500000e+00 0.498 slower 1 2.168559e+06 2.168562e+06 2.517
1 irregular 9 84 884 65 2 0.123 faster 1 2.168563e+06 2.168565e+06 2.515
1 irregular 9 85 885 55 3 0.414 slower 1 2.168566e+06 2.168570e+06 3.610
1 irregular 9 86 886 56 1 0.400 slower 1 2.168571e+06 2.168573e+06 1.748
1 irregular 9 87 887 56 2.500000e+00 0.402 slower 1 2.168575e+06 2.168578e+06 3.737
1 irregular 9 88 888 63 2.500000e+00 0.257 slower 0 2.168580e+06 2.168584e+06 3.702
1 irregular 9 89 889 56 1 0.133 slower 1 2.168587e+06 2.168589e+06 1.812
1 irregular 9 90 890 64 2.500000e+00 0.586 slower 0 2.168590e+06 2.168593e+06 3.168
1 irregular 9 91 891 65 3 0.279 faster 1 2.168594e+06 2.168598e+06 4.089
1 irregular 9 92 892 64 2.500000e+00 0.504 faster 1 2.168601e+06 2.168605e+06 3.895
1 irregular 9 93 893 64 2 0.568 slower 0 2.168607e+06 2.168609e+06 2.709
1 irregular 9 94 894 55 1.500000e+00 0.284 slower 1 2.168610e+06 2.168612e+06 2.085
1 irregular 9 95 895 64 3 0.208 faster 1 2.168616e+06 2.168620e+06 3.639
1 irregular 9 96 896 64 1 0.488 faster 1 2.168623e+06 2.168625e+06 1.603
1 irregular 9 97 897 57 2 0.260 slower 1 2.168626e+06 2.168628e+06 2.761
1 irregular 9 98 898 63 3 0.598 faster 1 2.168633e+06 2.168636e+06 3.651
1 irregular 9 99 899 58 1 0.448 faster 0 2.168643e+06 2.168644e+06 1.674
1 irregular 9 100 900 63 3 0.267 slower 0 2.168645e+06 2.168649e+06 3.780
1 regular 10 1 901 64 3 0.536 faster 1 2.168688e+06 2.168692e+06 4.148
1 regular 10 2 902 64 3 0.308 faster 1 2.168693e+06 2.168697e+06 3.609
1 regular 10 3 903 63 3 0.489 faster 1 2.168698e+06 2.168702e+06 3.680
1 regular 10 4 904 57 3 0.462 slower 1 2.168704e+06 2.168707e+06 3.690
1 regular 10 5 905 62 3 0.365 slower 0 2.168708e+06 2.168712e+06 4.050
1 regular 10 6 906 57 3 0.242 faster 0 2.168714e+06 2.168717e+06 3.569
1 regular 10 7 907 64 3 0.164 faster 1 2.168718e+06 2.168722e+06 3.563
1 regular 10 8 908 56 3 0.560 faster 0 2.168724e+06 2.168727e+06 3.602
1 regular 10 9 909 65 3 0.309 faster 1 2.168729e+06 2.168733e+06 4.166
1 regular 10 10 910 56 3 0.505 faster 0 2.168735e+06 2.168738e+06 3.896
1 regular 10 11 911 65 3 0.558 faster 1 2.168740e+06 2.168743e+06 3.644
1 regular 10 12 912 65 3 0.263 faster 1 2.168745e+06 2.168748e+06 3.580
1 regular 10 13 913 56 3 0.156 slower 1 2.168749e+06 2.168753e+06 3.738
1 regular 10 14 914 56 3 0.463 faster 0 2.168755e+06 2.168758e+06 3.643
1 regular 10 15 915 65 3 0.143 faster 1 2.168759e+06 2.168763e+06 3.537
1 regular 10 16 916 64 3 0.391 faster 1 2.168764e+06 2.168768e+06 3.667
1 regular 10 17 917 64 3 0.473 faster 1 2.168770e+06 2.168773e+06 3.793
1 regular 10 18 918 57 3 0.468 faster 0 2.168775e+06 2.168779e+06 4.129
1 regular 10 19 919 64 3 0.554 faster 1 2.168781e+06 2.168784e+06 3.657
1 regular 10 20 920 64 3 0.165 faster 1 2.168786e+06 2.168789e+06 3.617
1 regular 10 21 921 63 3 0.231 faster 1 2.168791e+06 2.168794e+06 3.739
1 regular 10 22 922 57 3 0.317 faster 0 2.168796e+06 2.168799e+06 3.569
1 regular 10 23 923 56 3 0.523 faster 0 2.168801e+06 2.168805e+06 3.613
1 regular 10 24 924 65 3 0.261 slower 0 2.168806e+06 2.168810e+06 3.662
1 regular 10 25 925 54 3 0.493 slower 1 2.168811e+06 2.168815e+06 3.807
1 regular 10 26 926 65 3 0.571 faster 1 2.168817e+06 2.168820e+06 3.631
1 regular 10 27 927 65 3 0.505 faster 1 2.168824e+06 2.168828e+06 3.622
1 regular 10 28 928 64 3 0.528 slower 0 2.168830e+06 2.168833e+06 3.720
1 regular 10 29 929 65 3 0.478 faster 1 2.168835e+06 2.168839e+06 3.779
1 regular 10 30 930 65 3 0.337 slower 0 2.168847e+06 2.168851e+06 3.986
1 regular 10 31 931 66 3 0.457 slower 0 2.168853e+06 2.168856e+06 3.605
1 regular 10 32 932 53 3 0.477 faster 0 2.168858e+06 2.168861e+06 3.678
1 regular 10 33 933 52 3 0.405 slower 1 2.168863e+06 2.168867e+06 3.635
1 regular 10 34 934 67 3 0.164 faster 1 2.168872e+06 2.168876e+06 3.579
1 regular 10 35 935 53 3 0.280 slower 1 2.168877e+06 2.168881e+06 3.488
1 regular 10 36 936 66 3 0.252 faster 1 2.168884e+06 2.168887e+06 3.563
1 regular 10 37 937 66 3 0.541 faster 1 2.168889e+06 2.168893e+06 3.930
1 regular 10 38 938 65 3 0.237 faster 1 2.168897e+06 2.168900e+06 3.608
1 regular 10 39 939 55 3 0.198 faster 0 2.168905e+06 2.168909e+06 3.972
1 regular 10 40 940 54 3 0.385 slower 1 2.168914e+06 2.168918e+06 3.755
1 regular 10 41 941 55 3 0.558 faster 0 2.168919e+06 2.168923e+06 3.613
1 regular 10 42 942 54 3 0.473 faster 0 2.168924e+06 2.168928e+06 3.848
1 regular 10 43 943 67 3 0.316 faster 1 2.168929e+06 2.168933e+06 3.828
1 regular 10 44 944 53 3 0.245 faster 0 2.168934e+06 2.168938e+06 3.864
1 regular 10 45 945 52 3 0.323 slower 1 2.168941e+06 2.168944e+06 3.572
1 regular 10 46 946 67 3 0.403 faster 1 2.168947e+06 2.168951e+06 3.569
1 regular 10 47 947 67 3 0.276 faster 1 2.168956e+06 2.168960e+06 3.686
1 regular 10 48 948 54 3 0.438 slower 1 2.168961e+06 2.168965e+06 3.788
1 regular 10 49 949 66 3 0.201 faster 1 2.168967e+06 2.168972e+06 4.522
1 regular 10 50 950 55 3 0.152 slower 1 2.168974e+06 2.168977e+06 3.693
1 regular 10 51 951 55 3 0.187 faster 0 2.168979e+06 2.168983e+06 4.181
1 regular 10 52 952 54 3 0.422 slower 1 2.168984e+06 2.168988e+06 3.691
1 regular 10 53 953 65 3 0.545 slower 0 2.168991e+06 2.168995e+06 4.094
1 regular 10 54 954 66 3 0.322 faster 1 2.168997e+06 2.169001e+06 3.581
1 regular 10 55 955 54 3 0.579 faster 0 2.169002e+06 2.169006e+06 3.807
1 regular 10 56 956 53 3 0.327 slower 1 2.169010e+06 2.169014e+06 3.568
1 regular 10 57 957 54 3 0.411 slower 1 2.169015e+06 2.169019e+06 3.628
1 regular 10 58 958 54 3 0.291 faster 0 2.169020e+06 2.169024e+06 4.184
1 regular 10 59 959 53 3 0.389 slower 1 2.169026e+06 2.169029e+06 3.581
1 regular 10 60 960 54 3 0.300 faster 0 2.169034e+06 2.169038e+06 4.058
1 regular 10 61 961 67 3 0.170 faster 1 2.169039e+06 2.169043e+06 3.544
1 regular 10 62 962 53 3 0.457 slower 1 2.169044e+06 2.169048e+06 3.758
1 regular 10 63 963 54 3 0.514 faster 0 2.169049e+06 2.169053e+06 3.652
1 regular 10 64 964 67 3 0.498 faster 1 2.169055e+06 2.169058e+06 3.733
1 regular 10 65 965 53 3 0.218 slower 1 2.169060e+06 2.169063e+06 3.815
1 regular 10 66 966 54 3 0.424 faster 0 2.169065e+06 2.169069e+06 3.610
1 regular 10 67 967 53 3 0.114 slower 1 2.169070e+06 2.169074e+06 3.848
1 regular 10 68 968 67 3 0.346 faster 1 2.169077e+06 2.169081e+06 3.680
1 regular 10 69 969 54 3 0.180 slower 1 2.169082e+06 2.169086e+06 3.494
1 regular 10 70 970 54 3 0.331 faster 0 2.169087e+06 2.169091e+06 3.548
1 regular 10 71 971 67 3 0.408 faster 1 2.169092e+06 2.169096e+06 3.609
1 regular 10 72 972 66 3 0.220 slower 0 2.169097e+06 2.169101e+06 3.650
1 regular 10 73 973 67 3 0.171 faster 1 2.169102e+06 2.169106e+06 3.617
1 regular 10 74 974 53 3 0.120 slower 1 2.169107e+06 2.169110e+06 3.783
1 regular 10 75 975 54 3 0.516 faster 0 2.169111e+06 2.169115e+06 3.600
1 regular 10 76 976 53 3 0.239 slower 1 2.169116e+06 2.169120e+06 3.695
1 regular 10 77 977 53 3 0.176 slower 1 2.169128e+06 2.169131e+06 3.598
1 regular 10 78 978 54 3 0.350 slower 1 2.169132e+06 2.169136e+06 3.653
1 regular 10 79 979 54 3 0.392 faster 0 2.169137e+06 2.169141e+06 3.962
1 regular 10 80 980 67 3 0.143 faster 1 2.169142e+06 2.169146e+06 3.547
1 regular 10 81 981 66 3 0.588 faster 1 2.169150e+06 2.169154e+06 3.708
1 regular 10 82 982 66 3 0.406 faster 1 2.169155e+06 2.169159e+06 3.927
1 regular 10 83 983 55 3 0.571 slower 1 2.169160e+06 2.169164e+06 3.995
1 regular 10 84 984 55 3 0.226 slower 1 2.169169e+06 2.169172e+06 3.726
1 regular 10 85 985 64 3 0.430 faster 1 2.169174e+06 2.169178e+06 3.835
1 regular 10 86 986 64 3 0.305 faster 1 2.169180e+06 2.169184e+06 3.791
1 regular 10 87 987 57 3 0.253 slower 1 2.169186e+06 2.169190e+06 3.952
1 regular 10 88 988 57 3 0.305 faster 0 2.169191e+06 2.169195e+06 3.982
1 regular 10 89 989 64 3 0.327 slower 0 2.169197e+06 2.169200e+06 3.588
1 regular 10 90 990 65 3 0.354 faster 1 2.169206e+06 2.169210e+06 3.602
1 regular 10 91 991 64 3 0.344 faster 1 2.169211e+06 2.169215e+06 3.666
1 regular 10 92 992 64 3 0.147 slower 0 2.169218e+06 2.169222e+06 3.641
1 regular 10 93 993 65 3 0.416 slower 0 2.169224e+06 2.169228e+06 3.669
1 regular 10 94 994 54 3 0.265 slower 1 2.169229e+06 2.169232e+06 3.655
1 regular 10 95 995 65 3 0.177 faster 1 2.169234e+06 2.169237e+06 3.597
1 regular 10 96 996 65 3 0.196 faster 1 2.169239e+06 2.169242e+06 3.587
1 regular 10 97 997 64 3 0.488 slower 0 2.169246e+06 2.169250e+06 3.576
1 regular 10 98 998 55 3 0.367 slower 1 2.169257e+06 2.169261e+06 3.630
1 regular 10 99 999 55 3 0.427 faster 0 2.169262e+06 2.169265e+06 3.676
1 regular 10 100 1000 54 3 0.388 faster 0 2.169269e+06 2.169272e+06 3.839
