subNo condition blockNo trialNo trialID currentFrequency cueTargetInterval randomPreCueInterval response responseAccuracy startTime responseTime RT
18 regular 1 1 1 63 3 0.362 slower 0 3.274745e+06 3.274749e+06 4.052
18 regular 1 2 2 55 3 0.418 slower 1 3.274751e+06 3.274755e+06 4.458
18 regular 1 3 3 65 3 0.355 slower 0 3.274757e+06 3.274761e+06 4.189
18 regular 1 4 4 53 3 0.117 slower 1 3.274763e+06 3.274767e+06 4.208
18 regular 1 5 5 55 3 0.150 faster 0 3.274768e+06 3.274772e+06 3.793
18 regular 1 6 6 67 3 0.177 faster 1 3.274773e+06 3.274777e+06 4.167
18 regular 1 7 7 53 3 0.488 slower 1 3.274778e+06 3.274782e+06 3.851
18 regular 1 8 8 55 3 0.157 faster 0 3.274783e+06 3.274786e+06 3.809
18 regular 1 9 9 54 3 0.211 faster 0 3.274787e+06 3.274791e+06 3.826
18 regular 1 10 10 67 3 0.312 slower 0 3.274792e+06 3.274796e+06 4.108
18 regular 1 11 11 52 3 0.486 slower 1 3.274798e+06 3.274801e+06 3.901
18 regular 1 12 12 52 3 0.456 slower 1 3.274803e+06 3.274807e+06 3.988
18 regular 1 13 13 53 3 0.118 slower 1 3.274807e+06 3.274812e+06 4.256
18 regular 1 14 14 53 3 0.505 faster 0 3.274813e+06 3.274817e+06 4.463
18 regular 1 15 15 68 3 0.549 faster 1 3.274819e+06 3.274823e+06 3.930
18 regular 1 16 16 53 3 0.582 slower 1 3.274824e+06 3.274828e+06 4.308
18 regular 1 17 17 53 3 0.402 faster 0 3.274829e+06 3.274833e+06 3.828
18 regular 1 18 18 68 3 0.359 slower 0 3.274834e+06 3.274838e+06 3.725
18 regular 1 19 19 51 3 0.314 faster 0 3.274839e+06 3.274843e+06 3.852
18 regular 1 20 20 50 3 0.139 slower 1 3.274843e+06 3.274848e+06 4.223
18 regular 1 21 21 69 3 0.599 faster 1 3.274849e+06 3.274853e+06 3.613
18 regular 1 22 22 69 3 0.272 faster 1 3.274854e+06 3.274858e+06 4.113
18 regular 1 23 23 68 3 0.312 slower 0 3.274859e+06 3.274863e+06 4.077
18 regular 1 24 24 69 3 0.395 faster 1 3.274864e+06 3.274868e+06 3.763
18 regular 1 25 25 69 3 0.253 faster 1 3.274869e+06 3.274873e+06 3.914
18 regular 1 26 26 68 3 0.552 slower 0 3.274874e+06 3.274878e+06 3.968
18 regular 1 27 27 51 3 0.505 slower 1 3.274879e+06 3.274883e+06 4.514
18 regular 1 28 28 51 3 0.263 slower 1 3.274885e+06 3.274889e+06 4.325
18 regular 1 29 29 68 3 0.284 slower 0 3.274890e+06 3.274894e+06 4.381
18 regular 1 30 30 69 3 0.276 faster 1 3.274895e+06 3.274899e+06 3.780
18 regular 1 31 31 51 3 0.299 slower 1 3.274900e+06 3.274904e+06 4.068
18 regular 1 32 32 68 3 0.426 faster 1 3.274905e+06 3.274909e+06 3.816
18 regular 1 33 33 68 3 0.445 faster 1 3.274910e+06 3.274914e+06 3.911
18 regular 1 34 34 67 3 0.297 faster 1 3.274915e+06 3.274919e+06 3.715
18 regular 1 35 35 53 3 0.248 faster 0 3.274921e+06 3.274925e+06 3.925
18 regular 1 36 36 68 3 0.544 faster 1 3.274927e+06 3.274931e+06 3.728
18 regular 1 37 37 67 3 0.346 faster 1 3.274932e+06 3.274936e+06 3.782
18 regular 1 38 38 53 3 0.142 slower 1 3.274936e+06 3.274940e+06 4.164
18 regular 1 39 39 66 3 0.327 faster 1 3.274941e+06 3.274945e+06 3.996
18 regular 1 40 40 66 3 0.543 faster 1 3.274947e+06 3.274951e+06 4.013
18 regular 1 41 41 55 3 0.344 faster 0 3.274952e+06 3.274955e+06 3.750
18 regular 1 42 42 66 3 0.552 faster 1 3.274957e+06 3.274961e+06 3.748
18 regular 1 43 43 66 3 0.551 slower 0 3.274962e+06 3.274967e+06 4.115
18 regular 1 44 44 53 3 0.109 slower 1 3.274967e+06 3.274971e+06 3.820
18 regular 1 45 45 66 3 0.494 faster 1 3.274972e+06 3.274976e+06 3.889
18 regular 1 46 46 66 3 0.331 faster 1 3.274977e+06 3.274981e+06 4.107
18 regular 1 47 47 55 3 0.144 slower 1 3.274982e+06 3.274986e+06 4.270
18 regular 1 48 48 65 3 0.344 faster 1 3.274987e+06 3.274991e+06 3.715
18 regular 1 49 49 56 3 0.470 slower 1 3.274992e+06 3.274996e+06 3.959
18 regular 1 50 50 56 3 0.587 faster 0 3.274997e+06 3.275001e+06 3.916
18 regular 1 51 51 65 3 0.229 faster 1 3.275002e+06 3.275006e+06 3.969
18 regular 1 52 52 64 3 0.228 faster 1 3.275007e+06 3.275011e+06 3.815
18 regular 1 53 53 56 3 0.537 faster 0 3.275012e+06 3.275016e+06 4.071
18 regular 1 54 54 55 3 0.300 slower 1 3.275017e+06 3.275021e+06 3.973
18 regular 1 55 55 56 3 0.149 faster 0 3.275022e+06 3.275025e+06 3.785
18 regular 1 56 56 55 3 0.357 slower 1 3.275027e+06 3.275031e+06 4.255
18 regular 1 57 57 55 3 0.438 faster 0 3.275032e+06 3.275036e+06 4.110
18 regular 1 58 58 66 3 0.319 faster 1 3.275037e+06 3.275041e+06 3.880
18 regular 1 59 59 55 3 0.310 slower 1 3.275042e+06 3.275046e+06 4.174
18 regular 1 60 60 65 3 0.560 faster 1 3.275047e+06 3.275051e+06 3.975
18 regular 1 61 61 64 3 0.259 faster 1 3.275052e+06 3.275056e+06 3.996
18 regular 1 62 62 64 3 0.464 slower 0 3.275057e+06 3.275061e+06 3.868
18 regular 1 63 63 55 3 0.137 faster 0 3.275062e+06 3.275066e+06 3.818
18 regular 1 64 64 54 3 0.366 faster 0 3.275067e+06 3.275071e+06 3.939
18 regular 1 65 65 67 3 0.108 slower 0 3.275073e+06 3.275077e+06 4.471
18 regular 1 66 66 52 3 0.176 slower 1 3.275078e+06 3.275082e+06 4.033
18 regular 1 67 67 67 3 0.493 faster 1 3.275084e+06 3.275087e+06 3.685
18 regular 1 68 68 53 3 0.160 slower 1 3.275089e+06 3.275093e+06 4.163
18 regular 1 69 69 66 3 0.223 faster 1 3.275094e+06 3.275097e+06 3.784
18 regular 1 70 70 66 3 0.178 faster 1 3.275098e+06 3.275102e+06 3.884
18 regular 1 71 71 55 3 0.588 slower 1 3.275103e+06 3.275107e+06 3.811
18 regular 1 72 72 55 3 0.279 faster 0 3.275108e+06 3.275112e+06 4.085
18 regular 1 73 73 66 3 0.404 faster 1 3.275113e+06 3.275117e+06 3.917
18 regular 1 74 74 65 3 0.419 faster 1 3.275118e+06 3.275122e+06 4.109
18 regular 1 75 75 55 3 0.364 faster 0 3.275123e+06 3.275128e+06 5.014
18 regular 1 76 76 66 3 0.368 faster 1 3.275130e+06 3.275134e+06 4.405
18 regular 1 77 77 55 3 0.540 slower 1 3.275135e+06 3.275139e+06 4.094
18 regular 1 78 78 55 3 0.316 slower 1 3.275140e+06 3.275144e+06 4.049
18 regular 1 79 79 64 3 0.193 faster 1 3.275145e+06 3.275149e+06 3.878
18 regular 1 80 80 64 3 0.212 faster 1 3.275150e+06 3.275154e+06 4.009
18 regular 1 81 81 57 3 0.372 faster 0 3.275155e+06 3.275159e+06 4.101
18 regular 1 82 82 64 3 0.523 slower 0 3.275160e+06 3.275165e+06 4.342
18 regular 1 83 83 65 3 0.387 faster 1 3.275166e+06 3.275169e+06 3.843
18 regular 1 84 84 65 3 0.304 faster 1 3.275170e+06 3.275174e+06 4.005
18 regular 1 85 85 64 3 0.120 faster 1 3.275175e+06 3.275179e+06 3.941
18 regular 1 86 86 64 3 0.140 faster 1 3.275180e+06 3.275184e+06 4.091
18 regular 1 87 87 57 3 0.138 faster 0 3.275185e+06 3.275189e+06 4.424
18 regular 1 88 88 56 3 0.333 faster 0 3.275190e+06 3.275194e+06 4.140
18 regular 1 89 89 55 3 0.379 slower 1 3.275195e+06 3.275199e+06 3.983
18 regular 1 90 90 55 3 0.542 faster 0 3.275201e+06 3.275205e+06 3.986
18 regular 1 91 91 66 3 0.539 faster 1 3.275206e+06 3.275210e+06 3.999
18 regular 1 92 92 65 3 0.173 slower 0 3.275211e+06 3.275215e+06 4.103
18 regular 1 93 93 54 3 0.516 faster 0 3.275216e+06 3.275220e+06 3.958
18 regular 1 94 94 67 3 0.315 slower 0 3.275221e+06 3.275225e+06 3.835
18 regular 1 95 95 52 3 0.442 slower 1 3.275226e+06 3.275230e+06 4.047
18 regular 1 96 96 52 3 0.489 faster 0 3.275231e+06 3.275235e+06 3.746
18 regular 1 97 97 51 3 0.396 slower 1 3.275236e+06 3.275240e+06 3.873
18 regular 1 98 98 52 3 0.308 slower 1 3.275241e+06 3.275244e+06 3.652
18 regular 1 99 99 68 3 0.507 faster 1 3.275246e+06 3.275250e+06 3.699
18 regular 1 100 100 53 3 0.585 faster 0 3.275251e+06 3.275255e+06 3.902
18 irregular 2 1 101 52 2.500000e+00 0.397 slower 1 3.275370e+06 3.275374e+06 3.987
18 irregular 2 2 102 68 3 0.359 faster 1 3.275376e+06 3.275380e+06 3.856
18 irregular 2 3 103 67 1 0.366 faster 1 3.275382e+06 3.275384e+06 1.998
18 irregular 2 4 104 53 1 0.263 faster 0 3.275384e+06 3.275387e+06 2.090
18 irregular 2 5 105 68 1.500000e+00 0.485 faster 1 3.275388e+06 3.275390e+06 2.663
18 irregular 2 6 106 53 2 0.154 faster 0 3.275391e+06 3.275394e+06 3.186
18 irregular 2 7 107 68 2 0.174 faster 1 3.275396e+06 3.275399e+06 2.888
18 irregular 2 8 108 68 1 0.455 faster 1 3.275400e+06 3.275403e+06 2.272
18 irregular 2 9 109 53 1 0.592 faster 0 3.275404e+06 3.275406e+06 2.024
18 irregular 2 10 110 52 1 0.225 faster 0 3.275408e+06 3.275410e+06 2.032
18 irregular 2 11 111 69 3 0.222 faster 1 3.275411e+06 3.275415e+06 4.006
18 irregular 2 12 112 69 3 0.569 slower 0 3.275416e+06 3.275420e+06 3.828
18 irregular 2 13 113 50 3 0.482 slower 1 3.275422e+06 3.275426e+06 3.814
18 irregular 2 14 114 69 2.500000e+00 0.395 faster 1 3.275427e+06 3.275430e+06 3.382
18 irregular 2 15 115 69 2.500000e+00 0.145 faster 1 3.275431e+06 3.275434e+06 3.561
18 irregular 2 16 116 52 1.500000e+00 0.404 slower 1 3.275435e+06 3.275438e+06 2.963
18 irregular 2 17 117 68 1 0.417 faster 1 3.275439e+06 3.275442e+06 2.200
18 irregular 2 18 118 67 1.500000e+00 0.232 faster 1 3.275443e+06 3.275445e+06 2.455
18 irregular 2 19 119 53 1.500000e+00 0.387 slower 1 3.275446e+06 3.275448e+06 2.408
18 irregular 2 20 120 66 2.500000e+00 0.517 faster 1 3.275450e+06 3.275453e+06 3.471
18 irregular 2 21 121 66 1 0.383 faster 1 3.275454e+06 3.275456e+06 1.882
18 irregular 2 22 122 55 1.500000e+00 0.502 slower 1 3.275457e+06 3.275460e+06 2.642
18 irregular 2 23 123 65 3 0.103 faster 1 3.275461e+06 3.275465e+06 3.961
18 irregular 2 24 124 56 3 0.506 faster 0 3.275466e+06 3.275470e+06 4.191
18 irregular 2 25 125 55 2.500000e+00 0.396 faster 0 3.275471e+06 3.275475e+06 3.334
18 irregular 2 26 126 66 2.500000e+00 0.175 faster 1 3.275476e+06 3.275479e+06 3.463
18 irregular 2 27 127 66 1 0.485 faster 1 3.275480e+06 3.275482e+06 1.828
18 irregular 2 28 128 65 3 0.453 slower 0 3.275484e+06 3.275488e+06 4.137
18 irregular 2 29 129 66 2 0.209 faster 1 3.275489e+06 3.275491e+06 2.834
18 irregular 2 30 130 66 1.500000e+00 0.226 faster 1 3.275492e+06 3.275495e+06 2.555
18 irregular 2 31 131 65 2 0.504 faster 1 3.275496e+06 3.275499e+06 3.147
18 irregular 2 32 132 55 2.500000e+00 0.342 faster 0 3.275500e+06 3.275504e+06 3.391
18 irregular 2 33 133 66 1.500000e+00 0.462 faster 1 3.275505e+06 3.275507e+06 2.397
18 irregular 2 34 134 65 1 0.226 faster 1 3.275508e+06 3.275511e+06 2.856
18 irregular 2 35 135 65 1.500000e+00 0.509 slower 0 3.275513e+06 3.275515e+06 2.760
18 irregular 2 36 136 54 1 0.290 faster 0 3.275516e+06 3.275518e+06 1.948
18 irregular 2 37 137 53 2.500000e+00 0.250 slower 1 3.275519e+06 3.275523e+06 3.583
18 irregular 2 38 138 54 2 0.529 slower 1 3.275524e+06 3.275527e+06 3.138
18 irregular 2 39 139 66 1.500000e+00 0.594 faster 1 3.275529e+06 3.275531e+06 2.443
18 irregular 2 40 140 65 3 0.431 slower 0 3.275532e+06 3.275536e+06 4.182
18 irregular 2 41 141 54 2.500000e+00 0.577 slower 1 3.275538e+06 3.275542e+06 3.594
18 irregular 2 42 142 54 1.500000e+00 0.487 faster 0 3.275543e+06 3.275545e+06 2.306
18 irregular 2 43 143 53 2 0.540 slower 1 3.275546e+06 3.275549e+06 3.118
18 irregular 2 44 144 66 3 0.594 faster 1 3.275551e+06 3.275555e+06 4.123
18 irregular 2 45 145 66 2 0.589 faster 1 3.275557e+06 3.275559e+06 2.883
18 irregular 2 46 146 55 1 0.481 faster 0 3.275561e+06 3.275562e+06 1.842
18 irregular 2 47 147 54 2 0.466 faster 0 3.275564e+06 3.275567e+06 3.172
18 irregular 2 48 148 53 3 0.171 faster 0 3.275568e+06 3.275572e+06 3.893
18 irregular 2 49 149 52 2 0.347 faster 0 3.275573e+06 3.275576e+06 3.001
18 irregular 2 50 150 69 2.500000e+00 0.547 slower 0 3.275577e+06 3.275580e+06 3.550
18 irregular 2 51 151 70 3 0.175 faster 1 3.275581e+06 3.275586e+06 4.343
18 irregular 2 52 152 50 1.500000e+00 0.105 slower 1 3.275586e+06 3.275589e+06 2.568
18 irregular 2 53 153 51 2 0.381 faster 0 3.275590e+06 3.275593e+06 2.909
18 irregular 2 54 154 50 2 0.449 faster 0 3.275594e+06 3.275597e+06 3.042
18 irregular 2 55 155 71 1.500000e+00 0.275 slower 0 3.275598e+06 3.275601e+06 2.317
18 irregular 2 56 156 72 1 0.394 faster 1 3.275602e+06 3.275604e+06 1.859
18 irregular 2 57 157 48 3 0.484 faster 0 3.275605e+06 3.275609e+06 3.850
18 irregular 2 58 158 47 1 0.116 slower 1 3.275611e+06 3.275613e+06 1.857
18 irregular 2 59 159 72 1 0.244 faster 1 3.275614e+06 3.275616e+06 1.786
18 irregular 2 60 160 48 2.500000e+00 0.268 slower 1 3.275617e+06 3.275621e+06 3.968
18 irregular 2 61 161 49 3 0.216 slower 1 3.275622e+06 3.275626e+06 3.967
18 irregular 2 62 162 71 2 0.573 faster 1 3.275629e+06 3.275632e+06 3.230
18 irregular 2 63 163 50 1 0.116 faster 0 3.275634e+06 3.275637e+06 3.121
18 irregular 2 64 164 49 3 0.501 slower 1 3.275639e+06 3.275643e+06 4.010
18 irregular 2 65 165 71 2 0.589 faster 1 3.275644e+06 3.275648e+06 3.793
18 irregular 2 66 166 70 2.500000e+00 0.520 faster 1 3.275649e+06 3.275653e+06 3.279
18 irregular 2 67 167 70 2 0.595 faster 1 3.275654e+06 3.275657e+06 3.299
18 irregular 2 68 168 69 2.500000e+00 0.598 faster 1 3.275659e+06 3.275662e+06 3.416
18 irregular 2 69 169 51 3 0.435 faster 0 3.275664e+06 3.275668e+06 4.413
18 irregular 2 70 170 50 1 0.171 faster 0 3.275669e+06 3.275671e+06 1.990
18 irregular 2 71 171 49 2.500000e+00 0.107 faster 0 3.275672e+06 3.275676e+06 3.675
18 irregular 2 72 172 72 1 0.196 faster 1 3.275677e+06 3.275679e+06 2.025
18 irregular 2 73 173 71 1.500000e+00 0.209 faster 1 3.275680e+06 3.275684e+06 3.489
18 irregular 2 74 174 49 2.500000e+00 0.581 faster 0 3.275685e+06 3.275689e+06 3.611
18 irregular 2 75 175 48 2 0.585 slower 1 3.275690e+06 3.275693e+06 2.872
18 irregular 2 76 176 49 3 0.584 slower 1 3.275694e+06 3.275698e+06 3.959
18 irregular 2 77 177 49 1.500000e+00 0.408 slower 1 3.275699e+06 3.275702e+06 2.564
18 irregular 2 78 178 50 3 0.404 faster 0 3.275703e+06 3.275707e+06 4.154
18 irregular 2 79 179 71 2 0.462 faster 1 3.275708e+06 3.275711e+06 2.897
18 irregular 2 80 180 71 3 0.565 faster 1 3.275712e+06 3.275716e+06 3.913
18 irregular 2 81 181 50 3 0.484 slower 1 3.275717e+06 3.275722e+06 4.470
18 irregular 2 82 182 50 1.500000e+00 0.242 slower 1 3.275723e+06 3.275726e+06 2.898
18 irregular 2 83 183 69 2.500000e+00 0.384 faster 1 3.275727e+06 3.275730e+06 3.326
18 irregular 2 84 184 51 1 0.445 faster 0 3.275731e+06 3.275734e+06 2.427
18 irregular 2 85 185 70 1.500000e+00 0.175 faster 1 3.275735e+06 3.275737e+06 2.485
18 irregular 2 86 186 51 1.500000e+00 0.560 faster 0 3.275739e+06 3.275741e+06 2.451
18 irregular 2 87 187 50 2.500000e+00 0.242 faster 0 3.275742e+06 3.275745e+06 3.264
18 irregular 2 88 188 49 1 0.426 faster 0 3.275746e+06 3.275748e+06 1.773
18 irregular 2 89 189 72 2.500000e+00 0.329 faster 1 3.275750e+06 3.275753e+06 3.622
18 irregular 2 90 190 72 1.500000e+00 0.435 faster 1 3.275755e+06 3.275757e+06 2.552
18 irregular 2 91 191 49 1.500000e+00 0.355 slower 1 3.275758e+06 3.275761e+06 2.656
18 irregular 2 92 192 49 2.500000e+00 0.361 slower 1 3.275762e+06 3.275765e+06 3.557
18 irregular 2 93 193 50 2 0.421 slower 1 3.275767e+06 3.275770e+06 2.878
18 irregular 2 94 194 70 2.500000e+00 0.333 faster 1 3.275771e+06 3.275775e+06 3.556
18 irregular 2 95 195 69 2 0.474 faster 1 3.275776e+06 3.275779e+06 2.956
18 irregular 2 96 196 51 2 0.282 faster 0 3.275780e+06 3.275782e+06 2.800
18 irregular 2 97 197 50 1.500000e+00 0.552 slower 1 3.275784e+06 3.275786e+06 2.534
18 irregular 2 98 198 69 1 0.544 slower 0 3.275787e+06 3.275790e+06 2.352
18 irregular 2 99 199 70 2 0.105 faster 1 3.275791e+06 3.275793e+06 2.706
18 irregular 2 100 200 70 3 0.145 slower 0 3.275794e+06 3.275799e+06 4.323
18 regular 3 1 201 71 2 0.329 faster 1 3.275881e+06 3.275884e+06 2.861
18 regular 3 2 202 50 2 0.352 slower 1 3.275885e+06 3.275888e+06 2.897
18 regular 3 3 203 70 2 0.373 faster 1 3.275890e+06 3.275893e+06 2.989
18 regular 3 4 204 69 2 0.170 faster 1 3.275894e+06 3.275897e+06 2.792
18 regular 3 5 205 51 2 0.553 slower 1 3.275898e+06 3.275901e+06 2.902
18 regular 3 6 206 52 2 0.391 slower 1 3.275902e+06 3.275905e+06 2.884
18 regular 3 7 207 68 2 0.135 faster 1 3.275906e+06 3.275909e+06 3.000
18 regular 3 8 208 53 2 0.487 slower 1 3.275910e+06 3.275913e+06 3.160
18 regular 3 9 209 67 2 0.554 faster 1 3.275915e+06 3.275917e+06 2.886
18 regular 3 10 210 66 2 0.391 faster 1 3.275918e+06 3.275921e+06 2.874
18 regular 3 11 211 54 2 0.195 slower 1 3.275923e+06 3.275926e+06 3.816
18 regular 3 12 212 65 2 0.479 faster 1 3.275928e+06 3.275930e+06 2.679
18 regular 3 13 213 65 2 0.191 faster 1 3.275931e+06 3.275934e+06 2.616
18 regular 3 14 214 56 2 0.132 slower 1 3.275935e+06 3.275938e+06 2.776
18 regular 3 15 215 64 2 0.174 faster 1 3.275938e+06 3.275941e+06 2.657
18 regular 3 16 216 63 2 0.556 faster 1 3.275942e+06 3.275945e+06 3.212
18 regular 3 17 217 57 2 0.155 faster 0 3.275946e+06 3.275950e+06 3.451
18 regular 3 18 218 56 2 0.400 slower 1 3.275951e+06 3.275954e+06 2.894
18 regular 3 19 219 63 2 0.549 faster 1 3.275955e+06 3.275958e+06 3.425
18 regular 3 20 220 57 2 0.153 faster 0 3.275959e+06 3.275962e+06 2.800
18 regular 3 21 221 64 2 0.345 faster 1 3.275963e+06 3.275966e+06 3.335
18 regular 3 22 222 57 2 0.510 slower 1 3.275967e+06 3.275971e+06 3.297
18 regular 3 23 223 57 2 0.306 faster 0 3.275972e+06 3.275974e+06 2.716
18 regular 3 24 224 56 2 0.593 faster 0 3.275976e+06 3.275979e+06 3.397
18 regular 3 25 225 65 2 0.448 faster 1 3.275980e+06 3.275984e+06 3.385
18 regular 3 26 226 56 2 0.173 slower 1 3.275985e+06 3.275987e+06 2.826
18 regular 3 27 227 64 2 0.552 faster 1 3.275989e+06 3.275992e+06 2.803
18 regular 3 28 228 63 2 0.117 faster 1 3.275993e+06 3.275996e+06 3.150
18 regular 3 29 229 57 2 0.164 faster 0 3.275996e+06 3.276000e+06 3.352
18 regular 3 30 230 64 2 0.381 faster 1 3.276001e+06 3.276005e+06 3.266
18 regular 3 31 231 57 2 0.205 slower 1 3.276005e+06 3.276009e+06 3.181
18 regular 3 32 232 57 2 0.352 slower 1 3.276010e+06 3.276013e+06 2.903
18 regular 3 33 233 62 2 0.424 faster 1 3.276014e+06 3.276017e+06 2.994
18 regular 3 34 234 62 2 0.151 slower 0 3.276017e+06 3.276020e+06 2.901
18 regular 3 35 235 57 2 0.282 faster 0 3.276021e+06 3.276025e+06 3.267
18 regular 3 36 236 64 2 0.315 faster 1 3.276025e+06 3.276029e+06 3.255
18 regular 3 37 237 63 2 0.529 faster 1 3.276030e+06 3.276033e+06 3.367
18 regular 3 38 238 57 2 0.449 slower 1 3.276035e+06 3.276038e+06 2.818
18 regular 3 39 239 58 2 0.413 slower 1 3.276039e+06 3.276042e+06 3.188
18 regular 3 40 240 62 2 0.593 faster 1 3.276044e+06 3.276046e+06 2.815
18 regular 3 41 241 59 2 0.270 faster 0 3.276047e+06 3.276051e+06 3.502
18 regular 3 42 242 58 2 0.164 slower 1 3.276052e+06 3.276054e+06 2.773
18 regular 3 43 243 62 2 0.484 faster 1 3.276056e+06 3.276058e+06 2.731
18 regular 3 44 244 59 2 0.287 faster 0 3.276060e+06 3.276063e+06 3.366
18 regular 3 45 245 62 2 0.379 faster 1 3.276064e+06 3.276068e+06 3.318
18 regular 3 46 246 58 2 0.156 slower 1 3.276069e+06 3.276071e+06 2.916
18 regular 3 47 247 59 2 0.597 slower 1 3.276073e+06 3.276076e+06 3.466
18 regular 3 48 248 61 2 0.208 slower 0 3.276077e+06 3.276080e+06 3.059
18 regular 3 49 249 58 2 0.302 faster 0 3.276081e+06 3.276084e+06 2.895
18 regular 3 50 250 63 2 0.585 faster 1 3.276086e+06 3.276089e+06 2.995
18 regular 3 51 251 58 2 0.255 slower 1 3.276090e+06 3.276093e+06 2.827
18 regular 3 52 252 58 2 0.139 faster 0 3.276093e+06 3.276097e+06 3.180
18 regular 3 53 253 63 2 0.161 faster 1 3.276098e+06 3.276101e+06 2.769
18 regular 3 54 254 58 2 0.208 slower 1 3.276102e+06 3.276105e+06 2.904
18 regular 3 55 255 62 2 0.566 faster 1 3.276107e+06 3.276109e+06 2.826
18 regular 3 56 256 59 2 0.275 faster 0 3.276111e+06 3.276114e+06 2.794
18 regular 3 57 257 62 2 0.121 faster 1 3.276114e+06 3.276117e+06 2.849
18 regular 3 58 258 62 2 0.333 faster 1 3.276118e+06 3.276121e+06 2.939
18 regular 3 59 259 59 2 0.561 faster 0 3.276122e+06 3.276125e+06 2.777
18 regular 3 60 260 58 2 0.427 slower 1 3.276127e+06 3.276130e+06 3.061
18 regular 3 61 261 62 2 0.130 faster 1 3.276130e+06 3.276133e+06 2.697
18 regular 3 62 262 61 2 0.408 faster 1 3.276134e+06 3.276137e+06 2.840
18 regular 3 63 263 59 2 0.475 slower 1 3.276139e+06 3.276142e+06 3.097
18 regular 3 64 264 59 2 0.163 faster 0 3.276142e+06 3.276145e+06 2.648
18 regular 3 65 265 62 2 0.247 slower 0 3.276146e+06 3.276149e+06 2.747
18 regular 3 66 266 57 2 0.590 slower 1 3.276151e+06 3.276154e+06 2.897
18 regular 3 67 267 63 2 0.599 faster 1 3.276155e+06 3.276158e+06 2.837
18 regular 3 68 268 62 2 0.513 slower 0 3.276159e+06 3.276162e+06 2.837
18 regular 3 69 269 57 2 0.181 faster 0 3.276163e+06 3.276165e+06 2.727
18 regular 3 70 270 64 2 0.370 slower 0 3.276166e+06 3.276169e+06 2.810
18 regular 3 71 271 65 2 0.402 faster 1 3.276170e+06 3.276173e+06 2.661
18 regular 3 72 272 55 2 0.502 slower 1 3.276175e+06 3.276178e+06 2.842
18 regular 3 73 273 56 2 0.509 faster 0 3.276179e+06 3.276182e+06 2.800
18 regular 3 74 274 65 2 0.156 slower 0 3.276184e+06 3.276187e+06 2.836
18 regular 3 75 275 54 2 0.438 slower 1 3.276188e+06 3.276191e+06 2.812
18 regular 3 76 276 54 2 0.439 slower 1 3.276192e+06 3.276195e+06 2.829
18 regular 3 77 277 65 2 0.148 faster 1 3.276195e+06 3.276198e+06 2.730
18 regular 3 78 278 55 2 0.597 faster 0 3.276200e+06 3.276203e+06 2.866
18 regular 3 79 279 66 2 0.162 faster 1 3.276204e+06 3.276207e+06 2.786
18 regular 3 80 280 65 2 0.157 faster 1 3.276208e+06 3.276211e+06 2.907
18 regular 3 81 281 65 2 0.515 faster 1 3.276212e+06 3.276215e+06 2.855
18 regular 3 82 282 56 2 0.389 faster 0 3.276217e+06 3.276220e+06 2.973
18 regular 3 83 283 65 2 0.144 slower 0 3.276221e+06 3.276224e+06 3.148
18 regular 3 84 284 66 2 0.492 faster 1 3.276226e+06 3.276229e+06 2.805
18 regular 3 85 285 66 2 0.585 faster 1 3.276230e+06 3.276233e+06 2.902
18 regular 3 86 286 65 2 0.515 faster 1 3.276235e+06 3.276237e+06 2.788
18 regular 3 87 287 65 2 0.333 faster 1 3.276238e+06 3.276241e+06 3.012
18 regular 3 88 288 56 2 0.496 slower 1 3.276243e+06 3.276245e+06 2.790
18 regular 3 89 289 56 2 0.114 slower 1 3.276246e+06 3.276249e+06 2.824
18 regular 3 90 290 57 2 0.567 slower 1 3.276250e+06 3.276253e+06 2.950
18 regular 3 91 291 57 2 0.100 slower 1 3.276255e+06 3.276258e+06 2.833
18 regular 3 92 292 62 2 0.270 faster 1 3.276259e+06 3.276261e+06 2.788
18 regular 3 93 293 58 2 0.590 faster 0 3.276263e+06 3.276266e+06 2.768
18 regular 3 94 294 63 2 0.521 slower 0 3.276267e+06 3.276270e+06 3.559
18 regular 3 95 295 64 2 0.507 slower 0 3.276272e+06 3.276275e+06 2.906
18 regular 3 96 296 65 2 0.517 faster 1 3.276276e+06 3.276279e+06 3.018
18 regular 3 97 297 56 2 0.368 slower 1 3.276280e+06 3.276283e+06 2.644
18 regular 3 98 298 56 2 0.500 faster 0 3.276284e+06 3.276287e+06 2.767
18 regular 3 99 299 55 2 0.530 slower 1 3.276288e+06 3.276291e+06 2.535
18 regular 3 100 300 56 2 0.158 slower 1 3.276291e+06 3.276294e+06 2.886
18 irregular 4 1 301 64 1.500000e+00 0.177 slower 0 3.276336e+06 3.276339e+06 2.557
18 irregular 4 2 302 65 2.500000e+00 0.328 faster 1 3.276340e+06 3.276343e+06 3.662
18 irregular 4 3 303 64 1 0.334 faster 1 3.276345e+06 3.276347e+06 1.982
18 irregular 4 4 304 56 1 0.173 faster 0 3.276348e+06 3.276350e+06 2.276
18 irregular 4 5 305 65 3 0.505 slower 0 3.276351e+06 3.276356e+06 4.634
18 irregular 4 6 306 54 2.500000e+00 0.552 slower 1 3.276357e+06 3.276361e+06 3.426
18 irregular 4 7 307 65 2 0.284 faster 1 3.276362e+06 3.276365e+06 3.096
18 irregular 4 8 308 65 3 0.229 slower 0 3.276366e+06 3.276370e+06 4.250
18 irregular 4 9 309 54 1 0.454 faster 0 3.276372e+06 3.276374e+06 1.859
18 irregular 4 10 310 67 1 0.549 faster 1 3.276375e+06 3.276377e+06 1.703
18 irregular 4 11 311 54 2.500000e+00 0.219 faster 0 3.276378e+06 3.276382e+06 3.370
18 irregular 4 12 312 67 3 0.319 faster 1 3.276383e+06 3.276387e+06 4.123
18 irregular 4 13 313 53 1.500000e+00 0.154 faster 0 3.276388e+06 3.276391e+06 2.418
18 irregular 4 14 314 52 3 0.301 slower 1 3.276392e+06 3.276396e+06 4.143
18 irregular 4 15 315 53 1.500000e+00 0.312 slower 1 3.276398e+06 3.276400e+06 2.863
18 irregular 4 16 316 67 2 0.531 faster 1 3.276402e+06 3.276405e+06 2.934
18 irregular 4 17 317 54 2.500000e+00 0.255 slower 1 3.276406e+06 3.276409e+06 3.540
18 irregular 4 18 318 66 2.500000e+00 0.206 faster 1 3.276411e+06 3.276414e+06 3.293
18 irregular 4 19 319 65 1 0.135 faster 1 3.276415e+06 3.276417e+06 2.409
18 irregular 4 20 320 55 2 0.357 slower 1 3.276418e+06 3.276421e+06 3.299
18 irregular 4 21 321 64 1.500000e+00 0.238 faster 1 3.276422e+06 3.276425e+06 2.243
18 irregular 4 22 322 64 2 0.437 slower 0 3.276426e+06 3.276429e+06 2.827
18 irregular 4 23 323 65 2 0.516 faster 1 3.276430e+06 3.276433e+06 2.806
18 irregular 4 24 324 56 1 0.227 slower 1 3.276434e+06 3.276436e+06 2.023
18 irregular 4 25 325 56 2.500000e+00 0.521 slower 1 3.276437e+06 3.276440e+06 3.310
18 irregular 4 26 326 63 2.500000e+00 0.519 faster 1 3.276441e+06 3.276445e+06 3.534
18 irregular 4 27 327 57 2.500000e+00 0.263 faster 0 3.276446e+06 3.276450e+06 3.409
18 irregular 4 28 328 64 1 0.239 faster 1 3.276451e+06 3.276453e+06 1.816
18 irregular 4 29 329 63 1 0.309 faster 1 3.276454e+06 3.276456e+06 1.898
18 irregular 4 30 330 57 2.500000e+00 0.411 slower 1 3.276457e+06 3.276461e+06 4.040
18 irregular 4 31 331 62 3 0.377 slower 0 3.276462e+06 3.276466e+06 3.821
18 irregular 4 32 332 63 3 0.287 faster 1 3.276468e+06 3.276472e+06 4.246
18 irregular 4 33 333 57 3 0.134 faster 0 3.276473e+06 3.276477e+06 3.885
18 irregular 4 34 334 64 2 0.163 faster 1 3.276478e+06 3.276481e+06 2.934
18 irregular 4 35 335 57 2.500000e+00 0.410 slower 1 3.276482e+06 3.276486e+06 3.312
18 irregular 4 36 336 63 2 0.283 faster 1 3.276487e+06 3.276490e+06 3.225
18 irregular 4 37 337 58 1.500000e+00 0.273 slower 1 3.276491e+06 3.276494e+06 2.603
18 irregular 4 38 338 62 3 0.422 faster 1 3.276495e+06 3.276499e+06 3.866
18 irregular 4 39 339 61 1.500000e+00 0.248 faster 1 3.276501e+06 3.276503e+06 2.797
18 irregular 4 40 340 61 1 0.367 faster 1 3.276504e+06 3.276507e+06 2.239
18 irregular 4 41 341 59 2 0.180 faster 0 3.276507e+06 3.276511e+06 3.143
18 irregular 4 42 342 62 3 0.133 faster 1 3.276511e+06 3.276516e+06 4.423
18 irregular 4 43 343 58 1.500000e+00 0.558 faster 0 3.276517e+06 3.276520e+06 2.639
18 irregular 4 44 344 63 1 0.483 faster 1 3.276521e+06 3.276523e+06 2.237
18 irregular 4 45 345 58 1 0.283 faster 0 3.276524e+06 3.276526e+06 1.932
18 irregular 4 46 346 63 2.500000e+00 0.520 slower 0 3.276527e+06 3.276530e+06 3.305
18 irregular 4 47 347 56 2 0.337 slower 1 3.276532e+06 3.276535e+06 2.912
18 irregular 4 48 348 56 3 0.215 slower 1 3.276536e+06 3.276540e+06 4.058
18 irregular 4 49 349 57 2.500000e+00 0.120 slower 1 3.276541e+06 3.276545e+06 3.441
18 irregular 4 50 350 57 1.500000e+00 0.423 faster 0 3.276546e+06 3.276549e+06 2.665
18 irregular 4 51 351 56 2 0.173 faster 0 3.276549e+06 3.276552e+06 2.765
18 irregular 4 52 352 65 2 0.211 faster 1 3.276554e+06 3.276557e+06 2.898
18 irregular 4 53 353 56 1 0.507 faster 0 3.276558e+06 3.276560e+06 1.867
18 irregular 4 54 354 65 1.500000e+00 0.232 faster 1 3.276561e+06 3.276563e+06 2.295
18 irregular 4 55 355 55 3 0.432 faster 0 3.276565e+06 3.276568e+06 3.744
18 irregular 4 56 356 54 2 0.296 faster 0 3.276569e+06 3.276572e+06 2.996
18 irregular 4 57 357 53 2.500000e+00 0.124 slower 1 3.276573e+06 3.276576e+06 3.350
18 irregular 4 58 358 54 3 0.455 faster 0 3.276578e+06 3.276582e+06 3.630
18 irregular 4 59 359 67 3 0.556 faster 1 3.276583e+06 3.276587e+06 3.596
18 irregular 4 60 360 53 3 0.390 slower 1 3.276588e+06 3.276592e+06 4.039
18 irregular 4 61 361 54 1 0.510 faster 0 3.276594e+06 3.276595e+06 1.755
18 irregular 4 62 362 67 2.500000e+00 0.266 slower 0 3.276596e+06 3.276600e+06 3.426
18 irregular 4 63 363 68 1.500000e+00 0.518 faster 1 3.276601e+06 3.276604e+06 3.602
18 irregular 4 64 364 52 2 0.511 slower 1 3.276606e+06 3.276609e+06 3.207
18 irregular 4 65 365 67 2 0.287 faster 1 3.276610e+06 3.276613e+06 2.851
18 irregular 4 66 366 53 2 0.444 slower 1 3.276614e+06 3.276618e+06 3.835
18 irregular 4 67 367 54 1 0.241 faster 0 3.276618e+06 3.276621e+06 2.187
18 irregular 4 68 368 67 2.500000e+00 0.311 slower 0 3.276622e+06 3.276625e+06 3.556
18 irregular 4 69 369 52 2 0.170 slower 1 3.276626e+06 3.276629e+06 2.774
18 irregular 4 70 370 52 3 0.586 faster 0 3.276630e+06 3.276634e+06 4.080
18 irregular 4 71 371 51 2 0.521 slower 1 3.276635e+06 3.276640e+06 4.544
18 irregular 4 72 372 68 2 0.149 slower 0 3.276641e+06 3.276644e+06 3.131
18 irregular 4 73 373 69 2.500000e+00 0.593 slower 0 3.276646e+06 3.276649e+06 3.568
18 irregular 4 74 374 50 3 0.559 slower 1 3.276651e+06 3.276655e+06 4.077
18 irregular 4 75 375 50 3 0.444 faster 0 3.276656e+06 3.276660e+06 3.924
18 irregular 4 76 376 71 2.500000e+00 0.441 slower 0 3.276661e+06 3.276664e+06 3.421
18 irregular 4 77 377 48 1.500000e+00 0.551 faster 0 3.276665e+06 3.276668e+06 2.588
18 irregular 4 78 378 73 2.500000e+00 0.235 faster 1 3.276669e+06 3.276672e+06 3.332
18 irregular 4 79 379 72 1.500000e+00 0.341 faster 1 3.276674e+06 3.276676e+06 2.499
18 irregular 4 80 380 48 1.500000e+00 0.409 faster 0 3.276677e+06 3.276681e+06 3.397
18 irregular 4 81 381 73 1 0.143 faster 1 3.276682e+06 3.276683e+06 1.954
18 irregular 4 82 382 72 1.500000e+00 0.377 faster 1 3.276685e+06 3.276687e+06 2.648
18 irregular 4 83 383 48 1.500000e+00 0.487 slower 1 3.276688e+06 3.276691e+06 2.404
18 irregular 4 84 384 71 3 0.153 faster 1 3.276692e+06 3.276696e+06 3.983
18 irregular 4 85 385 49 3 0.424 slower 1 3.276698e+06 3.276702e+06 3.932
18 irregular 4 86 386 50 1 0.202 slower 1 3.276702e+06 3.276704e+06 2.006
18 irregular 4 87 387 70 1.500000e+00 0.237 faster 1 3.276706e+06 3.276708e+06 2.337
18 irregular 4 88 388 69 2 0.594 faster 1 3.276710e+06 3.276713e+06 3.057
18 irregular 4 89 389 51 1.500000e+00 0.259 faster 0 3.276714e+06 3.276716e+06 2.625
18 irregular 4 90 390 50 1 0.243 slower 1 3.276717e+06 3.276719e+06 1.964
18 irregular 4 91 391 51 1.500000e+00 0.178 faster 0 3.276720e+06 3.276722e+06 2.169
18 irregular 4 92 392 50 1 0.505 slower 1 3.276723e+06 3.276725e+06 2.012
18 irregular 4 93 393 50 2.500000e+00 0.434 faster 0 3.276727e+06 3.276730e+06 3.267
18 irregular 4 94 394 71 1.500000e+00 0.243 slower 0 3.276731e+06 3.276734e+06 2.879
18 irregular 4 95 395 72 2.500000e+00 0.313 faster 1 3.276737e+06 3.276740e+06 3.164
18 irregular 4 96 396 49 2 0.396 faster 0 3.276742e+06 3.276744e+06 2.881
18 irregular 4 97 397 72 3 0.345 slower 0 3.276746e+06 3.276750e+06 4.312
18 irregular 4 98 398 73 1 0.360 faster 1 3.276751e+06 3.276753e+06 2.481
18 irregular 4 99 399 73 1.500000e+00 0.593 faster 1 3.276755e+06 3.276757e+06 2.255
18 irregular 4 100 400 72 1 0.568 slower 0 3.276758e+06 3.276760e+06 2.283
18 regular 5 1 401 47 2.500000e+00 0.356 slower 1 3.276839e+06 3.276842e+06 3.495
18 regular 5 2 402 47 2.500000e+00 0.309 slower 1 3.276843e+06 3.276847e+06 3.286
18 regular 5 3 403 72 2.500000e+00 0.105 faster 1 3.276847e+06 3.276851e+06 3.276
18 regular 5 4 404 48 2.500000e+00 0.420 slower 1 3.276852e+06 3.276855e+06 3.322
18 regular 5 5 405 49 2.500000e+00 0.319 faster 0 3.276856e+06 3.276859e+06 3.201
18 regular 5 6 406 72 2.500000e+00 0.202 faster 1 3.276860e+06 3.276863e+06 3.347
18 regular 5 7 407 72 2.500000e+00 0.594 faster 1 3.276865e+06 3.276868e+06 3.304
18 regular 5 8 408 49 2.500000e+00 0.497 faster 0 3.276869e+06 3.276873e+06 3.511
18 regular 5 9 409 48 2.500000e+00 0.167 faster 0 3.276873e+06 3.276877e+06 3.443
18 regular 5 10 410 47 2.500000e+00 0.288 faster 0 3.276878e+06 3.276881e+06 3.267
18 regular 5 11 411 74 2.500000e+00 0.244 faster 1 3.276883e+06 3.276886e+06 3.652
18 regular 5 12 412 46 2.500000e+00 0.476 slower 1 3.276888e+06 3.276891e+06 3.320
18 regular 5 13 413 73 2.500000e+00 0.213 faster 1 3.276892e+06 3.276896e+06 3.379
18 regular 5 14 414 47 2.500000e+00 0.337 slower 1 3.276897e+06 3.276900e+06 3.287
18 regular 5 15 415 48 2.500000e+00 0.567 slower 1 3.276902e+06 3.276905e+06 3.269
18 regular 5 16 416 72 2.500000e+00 0.584 faster 1 3.276907e+06 3.276910e+06 3.288
18 regular 5 17 417 49 2.500000e+00 0.498 slower 1 3.276911e+06 3.276915e+06 3.309
18 regular 5 18 418 71 2.500000e+00 0.448 faster 1 3.276916e+06 3.276919e+06 3.405
18 regular 5 19 419 70 2.500000e+00 0.565 faster 1 3.276921e+06 3.276924e+06 3.249
18 regular 5 20 420 70 2.500000e+00 0.509 faster 1 3.276925e+06 3.276928e+06 3.252
18 regular 5 21 421 69 2.500000e+00 0.320 faster 1 3.276930e+06 3.276933e+06 3.367
18 regular 5 22 422 69 2.500000e+00 0.395 faster 1 3.276934e+06 3.276937e+06 3.172
18 regular 5 23 423 68 2.500000e+00 0.561 faster 1 3.276938e+06 3.276942e+06 3.314
18 regular 5 24 424 68 2.500000e+00 0.511 faster 1 3.276943e+06 3.276947e+06 3.842
18 regular 5 25 425 53 2.500000e+00 0.570 slower 1 3.276948e+06 3.276951e+06 3.301
18 regular 5 26 426 53 2.500000e+00 0.392 faster 0 3.276952e+06 3.276956e+06 3.365
18 regular 5 27 427 52 2.500000e+00 0.125 slower 1 3.276956e+06 3.276960e+06 3.695
18 regular 5 28 428 53 2.500000e+00 0.236 slower 1 3.276961e+06 3.276964e+06 3.291
18 regular 5 29 429 67 2.500000e+00 0.566 faster 1 3.276966e+06 3.276969e+06 3.545
18 regular 5 30 430 66 2.500000e+00 0.528 faster 1 3.276970e+06 3.276974e+06 3.728
18 regular 5 31 431 66 2.500000e+00 0.322 faster 1 3.276975e+06 3.276978e+06 3.125
18 regular 5 32 432 65 2.500000e+00 0.598 faster 1 3.276980e+06 3.276983e+06 3.264
18 regular 5 33 433 55 2.500000e+00 0.390 faster 0 3.276984e+06 3.276988e+06 3.180
18 regular 5 34 434 54 2.500000e+00 0.497 faster 0 3.276989e+06 3.276992e+06 3.191
18 regular 5 35 435 67 2.500000e+00 0.128 faster 1 3.276993e+06 3.276996e+06 3.315
18 regular 5 36 436 66 2.500000e+00 0.203 faster 1 3.276997e+06 3.277000e+06 3.320
18 regular 5 37 437 54 2.500000e+00 0.192 faster 0 3.277002e+06 3.277005e+06 3.422
18 regular 5 38 438 67 2.500000e+00 0.300 faster 1 3.277006e+06 3.277009e+06 3.438
18 regular 5 39 439 66 2.500000e+00 0.285 slower 0 3.277010e+06 3.277014e+06 3.405
18 regular 5 40 440 53 2.500000e+00 0.517 slower 1 3.277015e+06 3.277019e+06 3.439
18 regular 5 41 441 67 2.500000e+00 0.415 faster 1 3.277020e+06 3.277023e+06 3.208
18 regular 5 42 442 66 2.500000e+00 0.357 slower 0 3.277025e+06 3.277028e+06 3.573
18 regular 5 43 443 67 2.500000e+00 0.527 faster 1 3.277029e+06 3.277033e+06 3.456
18 regular 5 44 444 67 2.500000e+00 0.110 faster 1 3.277034e+06 3.277037e+06 3.898
18 regular 5 45 445 66 2.500000e+00 0.157 slower 0 3.277038e+06 3.277042e+06 3.538
18 regular 5 46 446 53 2.500000e+00 0.165 slower 1 3.277043e+06 3.277046e+06 3.535
18 regular 5 47 447 67 2.500000e+00 0.195 faster 1 3.277047e+06 3.277051e+06 3.393
18 regular 5 48 448 54 2.500000e+00 0.202 slower 1 3.277052e+06 3.277055e+06 3.450
18 regular 5 49 449 54 2.500000e+00 0.296 faster 0 3.277056e+06 3.277059e+06 3.196
18 regular 5 50 450 53 2.500000e+00 0.152 slower 1 3.277060e+06 3.277063e+06 3.291
18 regular 5 51 451 54 2.500000e+00 0.316 slower 1 3.277064e+06 3.277068e+06 3.405
18 regular 5 52 452 54 2.500000e+00 0.552 faster 0 3.277069e+06 3.277073e+06 3.548
18 regular 5 53 453 53 2.500000e+00 0.144 slower 1 3.277073e+06 3.277077e+06 3.337
18 regular 5 54 454 54 2.500000e+00 0.335 slower 1 3.277078e+06 3.277081e+06 3.161
18 regular 5 55 455 66 2.500000e+00 0.583 faster 1 3.277082e+06 3.277086e+06 3.308
18 regular 5 56 456 65 2.500000e+00 0.127 faster 1 3.277087e+06 3.277090e+06 3.444
18 regular 5 57 457 65 2.500000e+00 0.415 slower 0 3.277091e+06 3.277095e+06 3.489
18 regular 5 58 458 54 2.500000e+00 0.446 faster 0 3.277096e+06 3.277099e+06 3.414
18 regular 5 59 459 53 2.500000e+00 0.391 slower 1 3.277100e+06 3.277104e+06 3.787
18 regular 5 60 460 54 2.500000e+00 0.430 slower 1 3.277105e+06 3.277108e+06 3.561
18 regular 5 61 461 54 2.500000e+00 0.247 faster 0 3.277109e+06 3.277113e+06 3.336
18 regular 5 62 462 67 2.500000e+00 0.456 faster 1 3.277114e+06 3.277117e+06 3.317
18 regular 5 63 463 54 2.500000e+00 0.218 faster 0 3.277119e+06 3.277122e+06 3.384
18 regular 5 64 464 67 2.500000e+00 0.164 faster 1 3.277123e+06 3.277127e+06 3.412
18 regular 5 65 465 67 2.500000e+00 0.528 faster 1 3.277128e+06 3.277131e+06 3.546
18 regular 5 66 466 54 2.500000e+00 0.431 faster 0 3.277133e+06 3.277136e+06 3.478
18 regular 5 67 467 53 2.500000e+00 0.415 faster 0 3.277138e+06 3.277141e+06 3.427
18 regular 5 68 468 68 2.500000e+00 0.531 faster 1 3.277142e+06 3.277146e+06 3.517
18 regular 5 69 469 52 2.500000e+00 0.287 faster 0 3.277147e+06 3.277150e+06 3.312
18 regular 5 70 470 69 2.500000e+00 0.535 faster 1 3.277152e+06 3.277156e+06 3.390
18 regular 5 71 471 52 2.500000e+00 0.521 faster 0 3.277157e+06 3.277160e+06 3.367
18 regular 5 72 472 69 2.500000e+00 0.141 slower 0 3.277161e+06 3.277164e+06 3.340
18 regular 5 73 473 70 2.500000e+00 0.565 faster 1 3.277165e+06 3.277169e+06 3.072
18 regular 5 74 474 70 2.500000e+00 0.379 faster 1 3.277170e+06 3.277173e+06 3.239
18 regular 5 75 475 69 2.500000e+00 0.198 slower 0 3.277174e+06 3.277177e+06 3.288
18 regular 5 76 476 50 2.500000e+00 0.154 faster 0 3.277178e+06 3.277181e+06 3.070
18 regular 5 77 477 49 2.500000e+00 0.211 slower 1 3.277182e+06 3.277186e+06 4.157
18 regular 5 78 478 49 2.500000e+00 0.467 faster 0 3.277187e+06 3.277191e+06 3.763
18 regular 5 79 479 72 2.500000e+00 0.525 faster 1 3.277192e+06 3.277196e+06 3.579
18 regular 5 80 480 71 2.500000e+00 0.445 faster 1 3.277197e+06 3.277200e+06 3.295
18 regular 5 81 481 49 2.500000e+00 0.503 slower 1 3.277201e+06 3.277204e+06 3.206
18 regular 5 82 482 70 2.500000e+00 0.447 faster 1 3.277205e+06 3.277209e+06 3.402
18 regular 5 83 483 70 2.500000e+00 0.465 slower 0 3.277210e+06 3.277213e+06 3.369
18 regular 5 84 484 71 2.500000e+00 0.256 faster 1 3.277215e+06 3.277218e+06 3.266
18 regular 5 85 485 50 2.500000e+00 0.483 faster 0 3.277220e+06 3.277224e+06 3.252
18 regular 5 86 486 49 2.500000e+00 0.145 slower 1 3.277224e+06 3.277228e+06 3.412
18 regular 5 87 487 49 2.500000e+00 0.107 slower 1 3.277229e+06 3.277233e+06 3.524
18 regular 5 88 488 70 2.500000e+00 0.315 slower 0 3.277234e+06 3.277237e+06 3.455
18 regular 5 89 489 49 2.500000e+00 0.412 faster 0 3.277238e+06 3.277241e+06 3.229
18 regular 5 90 490 48 2.500000e+00 0.498 faster 0 3.277243e+06 3.277246e+06 3.251
18 regular 5 91 491 47 2.500000e+00 0.166 faster 0 3.277248e+06 3.277251e+06 3.418
18 regular 5 92 492 46 2.500000e+00 0.367 slower 1 3.277252e+06 3.277256e+06 3.059
18 regular 5 93 493 74 2.500000e+00 0.338 faster 1 3.277257e+06 3.277260e+06 3.296
18 regular 5 94 494 47 2.500000e+00 0.133 slower 1 3.277261e+06 3.277264e+06 3.424
18 regular 5 95 495 73 2.500000e+00 0.150 faster 1 3.277265e+06 3.277268e+06 3.212
18 regular 5 96 496 72 2.500000e+00 0.428 faster 1 3.277270e+06 3.277273e+06 3.111
18 regular 5 97 497 48 2.500000e+00 0.295 slower 1 3.277274e+06 3.277277e+06 3.334
18 regular 5 98 498 71 2.500000e+00 0.290 faster 1 3.277278e+06 3.277281e+06 3.230
18 regular 5 99 499 71 2.500000e+00 0.442 faster 1 3.277282e+06 3.277285e+06 3.166
18 regular 5 100 500 50 2.500000e+00 0.204 slower 1 3.277286e+06 3.277289e+06 3.275
18 irregular 6 1 501 76 1 0.341 faster 1 3.558621e+06 3.558622e+06 1.717
18 irregular 6 2 502 44 1 0.181 slower 1 3.558623e+06 3.558625e+06 1.774
18 irregular 6 3 503 46 1 0.568 faster 0 3.558626e+06 3.558628e+06 1.812
18 irregular 6 4 504 44 1 0.109 slower 1 3.558629e+06 3.558630e+06 1.815
18 irregular 6 5 505 44 2.500000e+00 0.153 slower 1 3.558631e+06 3.558635e+06 3.903
18 irregular 6 6 506 46 2 0.199 faster 0 3.558636e+06 3.558640e+06 3.666
18 irregular 6 7 507 44 1 0.240 slower 1 3.558641e+06 3.558642e+06 1.783
18 irregular 6 8 508 44 2 0.146 slower 1 3.558643e+06 3.558646e+06 2.974
18 irregular 6 9 509 74 3 0.583 faster 1 3.558647e+06 3.558651e+06 3.772
18 irregular 6 10 510 46 3 0.529 faster 0 3.558652e+06 3.558657e+06 4.483
18 irregular 6 11 511 75 1.500000e+00 0.143 slower 0 3.558658e+06 3.558660e+06 2.419
18 irregular 6 12 512 44 2.500000e+00 0.355 slower 1 3.558661e+06 3.558665e+06 3.404
18 irregular 6 13 513 45 2.500000e+00 0.464 slower 1 3.558666e+06 3.558669e+06 3.415
18 irregular 6 14 514 75 1 0.147 faster 1 3.558670e+06 3.558672e+06 1.615
18 irregular 6 15 515 46 2.500000e+00 0.580 slower 1 3.558673e+06 3.558676e+06 3.193
18 irregular 6 16 516 46 1.500000e+00 0.475 faster 0 3.558677e+06 3.558679e+06 2.243
18 irregular 6 17 517 75 2.500000e+00 0.504 faster 1 3.558681e+06 3.558684e+06 3.186
18 irregular 6 18 518 74 2.500000e+00 0.275 faster 1 3.558685e+06 3.558688e+06 3.210
18 irregular 6 19 519 46 1.500000e+00 0.323 slower 1 3.558689e+06 3.558691e+06 2.147
18 irregular 6 20 520 73 1.500000e+00 0.271 faster 1 3.558692e+06 3.558695e+06 2.219
18 irregular 6 21 521 73 1 0.426 faster 1 3.558696e+06 3.558697e+06 1.812
18 irregular 6 22 522 48 1.500000e+00 0.522 slower 1 3.558699e+06 3.558701e+06 2.152
18 irregular 6 23 523 48 3 0.377 faster 0 3.558702e+06 3.558705e+06 3.154
18 irregular 6 24 524 73 2 0.274 slower 0 3.558706e+06 3.558709e+06 2.797
18 irregular 6 25 525 74 3 0.251 faster 1 3.558710e+06 3.558713e+06 3.665
18 irregular 6 26 526 47 2 0.400 faster 0 3.558714e+06 3.558717e+06 2.861
18 irregular 6 27 527 74 3 0.339 faster 1 3.558718e+06 3.558722e+06 4.118
18 irregular 6 28 528 74 1 0.511 slower 0 3.558724e+06 3.558726e+06 2.053
18 irregular 6 29 529 45 1.500000e+00 0.581 slower 1 3.558727e+06 3.558729e+06 2.266
18 irregular 6 30 530 74 2.500000e+00 0.524 faster 1 3.558730e+06 3.558734e+06 3.366
18 irregular 6 31 531 46 2.500000e+00 0.168 faster 0 3.558735e+06 3.558738e+06 3.425
18 irregular 6 32 532 45 1.500000e+00 0.146 faster 0 3.558739e+06 3.558741e+06 2.472
18 irregular 6 33 533 76 3 0.434 faster 1 3.558742e+06 3.558746e+06 4.062
18 irregular 6 34 534 45 1 0.267 slower 1 3.558747e+06 3.558749e+06 1.907
18 irregular 6 35 535 45 1 0.217 none 2 3.558750e+06 3.558754e+06 4.000
18 irregular 6 36 536 75 2.500000e+00 0.198 faster 1 3.558755e+06 3.558760e+06 4.556
18 irregular 6 37 537 74 2.500000e+00 0.575 faster 1 3.558761e+06 3.558764e+06 3.403
18 irregular 6 38 538 46 3 0.207 faster 0 3.558769e+06 3.558773e+06 3.756
18 irregular 6 39 539 75 2.500000e+00 0.106 faster 1 3.558778e+06 3.558781e+06 3.304
18 irregular 6 40 540 46 1.500000e+00 0.146 faster 0 3.558782e+06 3.558785e+06 2.524
18 irregular 6 41 541 45 2.500000e+00 0.584 slower 1 3.558786e+06 3.558790e+06 3.729
18 irregular 6 42 542 45 2.500000e+00 0.316 faster 0 3.558793e+06 3.558797e+06 3.545
18 irregular 6 43 543 76 2 0.391 faster 1 3.558798e+06 3.558801e+06 2.821
18 irregular 6 44 544 75 3 0.119 faster 1 3.558802e+06 3.558807e+06 5.107
18 irregular 6 45 545 75 2.500000e+00 0.596 faster 1 3.558809e+06 3.558813e+06 4.097
18 irregular 6 46 546 74 3 0.441 faster 1 3.558815e+06 3.558819e+06 3.694
18 irregular 6 47 547 46 3 0.161 slower 1 3.558820e+06 3.558824e+06 3.903
18 irregular 6 48 548 73 2 0.515 faster 1 3.558825e+06 3.558828e+06 2.741
18 irregular 6 49 549 73 2 0.300 faster 1 3.558829e+06 3.558831e+06 2.703
18 irregular 6 50 550 48 2 0.595 slower 1 3.558833e+06 3.558835e+06 2.807
18 irregular 6 51 551 48 2 0.566 faster 0 3.558837e+06 3.558839e+06 2.743
18 irregular 6 52 552 73 1 0.344 faster 1 3.558840e+06 3.558842e+06 1.717
18 irregular 6 53 553 72 1.500000e+00 0.585 faster 1 3.558843e+06 3.558846e+06 2.294
18 irregular 6 54 554 72 2.500000e+00 0.267 slower 0 3.558846e+06 3.558850e+06 3.182
18 irregular 6 55 555 73 2.500000e+00 0.241 faster 1 3.558851e+06 3.558854e+06 3.281
18 irregular 6 56 556 72 1 0.505 faster 1 3.558855e+06 3.558857e+06 1.792
18 irregular 6 57 557 48 1.500000e+00 0.219 faster 0 3.558858e+06 3.558861e+06 3.024
18 irregular 6 58 558 73 3 0.297 slower 0 3.558862e+06 3.558865e+06 3.702
18 irregular 6 59 559 46 2 0.139 faster 0 3.558866e+06 3.558869e+06 3.000
18 irregular 6 60 560 45 2 0.186 slower 1 3.558871e+06 3.558873e+06 2.682
18 irregular 6 61 561 46 3 0.118 faster 0 3.558874e+06 3.558878e+06 3.702
18 irregular 6 62 562 45 3 0.326 slower 1 3.558879e+06 3.558883e+06 3.895
18 irregular 6 63 563 45 3 0.336 slower 1 3.558884e+06 3.558887e+06 3.694
18 irregular 6 64 564 74 3 0.124 faster 1 3.558888e+06 3.558892e+06 3.696
18 irregular 6 65 565 46 2.500000e+00 0.161 slower 1 3.558893e+06 3.558896e+06 3.242
18 irregular 6 66 566 73 1 0.287 faster 1 3.558897e+06 3.558899e+06 1.739
18 irregular 6 67 567 73 2 0.584 faster 1 3.558900e+06 3.558903e+06 2.767
18 irregular 6 68 568 72 3 0.401 faster 1 3.558904e+06 3.558907e+06 3.757
18 irregular 6 69 569 72 2 0.484 faster 1 3.558909e+06 3.558912e+06 2.707
18 irregular 6 70 570 71 1 0.161 faster 1 3.558913e+06 3.558915e+06 1.808
18 irregular 6 71 571 71 2 0.131 faster 1 3.558915e+06 3.558918e+06 2.690
18 irregular 6 72 572 50 3 0.580 slower 1 3.558919e+06 3.558923e+06 3.993
18 irregular 6 73 573 70 1.500000e+00 0.381 faster 1 3.558924e+06 3.558927e+06 2.750
18 irregular 6 74 574 51 2 0.311 faster 0 3.558929e+06 3.558932e+06 2.954
18 irregular 6 75 575 50 3 0.146 faster 0 3.558933e+06 3.558937e+06 3.937
18 irregular 6 76 576 49 1.500000e+00 0.525 faster 0 3.558938e+06 3.558941e+06 2.339
18 irregular 6 77 577 48 1.500000e+00 0.239 slower 1 3.558941e+06 3.558944e+06 2.204
18 irregular 6 78 578 72 1.500000e+00 0.576 faster 1 3.558945e+06 3.558947e+06 2.049
18 irregular 6 79 579 71 1.500000e+00 0.117 faster 1 3.558951e+06 3.558953e+06 2.210
18 irregular 6 80 580 49 1 0.533 faster 0 3.558954e+06 3.558956e+06 2.139
18 irregular 6 81 581 72 1.500000e+00 0.517 slower 0 3.558957e+06 3.558960e+06 2.551
18 irregular 6 82 582 47 2 0.263 slower 1 3.558963e+06 3.558966e+06 3.003
18 irregular 6 83 583 72 2.500000e+00 0.209 slower 0 3.558967e+06 3.558971e+06 3.574
18 irregular 6 84 584 73 1 0.526 faster 1 3.558976e+06 3.558978e+06 1.798
18 irregular 6 85 585 73 1.500000e+00 0.318 faster 1 3.558979e+06 3.558981e+06 2.233
18 irregular 6 86 586 48 2.500000e+00 0.217 faster 0 3.558982e+06 3.558985e+06 3.339
18 irregular 6 87 587 47 1 0.389 slower 1 3.558987e+06 3.558989e+06 1.840
18 irregular 6 88 588 73 1.500000e+00 0.292 faster 1 3.558990e+06 3.558992e+06 2.267
18 irregular 6 89 589 72 2 0.600 faster 1 3.558994e+06 3.558996e+06 2.681
18 irregular 6 90 590 72 1.500000e+00 0.227 faster 1 3.558997e+06 3.559000e+06 2.689
18 irregular 6 91 591 71 2 0.439 faster 1 3.559001e+06 3.559004e+06 2.793
18 irregular 6 92 592 49 3 0.358 faster 0 3.559005e+06 3.559009e+06 3.784
18 irregular 6 93 593 48 1 0.573 faster 0 3.559010e+06 3.559012e+06 1.681
18 irregular 6 94 594 73 1 0.202 faster 1 3.559012e+06 3.559014e+06 1.741
18 irregular 6 95 595 48 1 0.450 faster 0 3.559015e+06 3.559017e+06 1.758
18 irregular 6 96 596 73 3 0.326 faster 1 3.559018e+06 3.559022e+06 3.581
18 irregular 6 97 597 47 1.500000e+00 0.368 faster 0 3.559023e+06 3.559025e+06 2.274
18 irregular 6 98 598 46 2.500000e+00 0.258 faster 0 3.559026e+06 3.559029e+06 3.140
18 irregular 6 99 599 75 2 0.204 faster 1 3.559030e+06 3.559033e+06 2.732
18 irregular 6 100 600 46 2 0.209 faster 0 3.559033e+06 3.559036e+06 2.894
18 regular 7 1 601 75 1.500000e+00 0.471 faster 1 3.559097e+06 3.559101e+06 3.275
18 regular 7 2 602 45 1.500000e+00 0.150 slower 1 3.559102e+06 3.559104e+06 2.574
18 regular 7 3 603 46 1.500000e+00 0.262 slower 1 3.559105e+06 3.559108e+06 2.366
18 regular 7 4 604 74 1.500000e+00 0.321 faster 1 3.559109e+06 3.559111e+06 2.327
18 regular 7 5 605 73 1.500000e+00 0.271 faster 1 3.559112e+06 3.559114e+06 2.567
18 regular 7 6 606 73 1.500000e+00 0.442 faster 1 3.559115e+06 3.559118e+06 2.418
18 regular 7 7 607 48 1.500000e+00 0.413 slower 1 3.559119e+06 3.559121e+06 2.271
18 regular 7 8 608 72 1.500000e+00 0.474 faster 1 3.559122e+06 3.559125e+06 2.481
18 regular 7 9 609 71 1.500000e+00 0.553 faster 1 3.559126e+06 3.559128e+06 2.206
18 regular 7 10 610 49 1.500000e+00 0.586 faster 0 3.559129e+06 3.559131e+06 2.135
18 regular 7 11 611 72 1.500000e+00 0.373 faster 1 3.559133e+06 3.559135e+06 2.012
18 regular 7 12 612 71 1.500000e+00 0.384 faster 1 3.559136e+06 3.559138e+06 2.122
18 regular 7 13 613 71 1.500000e+00 0.139 faster 1 3.559138e+06 3.559141e+06 2.146
18 regular 7 14 614 70 1.500000e+00 0.373 slower 0 3.559142e+06 3.559144e+06 2.228
18 regular 7 15 615 71 1.500000e+00 0.568 faster 1 3.559145e+06 3.559147e+06 2.127
18 regular 7 16 616 49 1.500000e+00 0.338 slower 1 3.559148e+06 3.559151e+06 2.859
18 regular 7 17 617 70 1.500000e+00 0.245 faster 1 3.559152e+06 3.559154e+06 2.511
18 regular 7 18 618 70 1.500000e+00 0.143 faster 1 3.559155e+06 3.559158e+06 2.422
18 regular 7 19 619 51 1.500000e+00 0.477 faster 0 3.559159e+06 3.559161e+06 2.187
18 regular 7 20 620 70 1.500000e+00 0.268 faster 1 3.559163e+06 3.559165e+06 2.048
18 regular 7 21 621 50 1.500000e+00 0.436 slower 1 3.559166e+06 3.559168e+06 2.412
18 regular 7 22 622 51 1.500000e+00 0.272 faster 0 3.559169e+06 3.559171e+06 2.173
18 regular 7 23 623 50 1.500000e+00 0.172 faster 0 3.559172e+06 3.559174e+06 2.023
18 regular 7 24 624 71 1.500000e+00 0.251 faster 1 3.559175e+06 3.559177e+06 2.096
18 regular 7 25 625 49 1.500000e+00 0.108 faster 0 3.559178e+06 3.559180e+06 2.441
18 regular 7 26 626 48 1.500000e+00 0.335 slower 1 3.559181e+06 3.559184e+06 2.568
18 regular 7 27 627 71 1.500000e+00 0.296 slower 0 3.559185e+06 3.559187e+06 2.251
18 regular 7 28 628 72 1.500000e+00 0.402 faster 1 3.559188e+06 3.559190e+06 2.344
18 regular 7 29 629 48 1.500000e+00 0.363 slower 1 3.559191e+06 3.559194e+06 2.313
18 regular 7 30 630 71 1.500000e+00 0.302 slower 0 3.559195e+06 3.559197e+06 2.453
18 regular 7 31 631 72 1.500000e+00 0.119 slower 0 3.559199e+06 3.559201e+06 2.240
18 regular 7 32 632 73 1.500000e+00 0.156 faster 1 3.559202e+06 3.559204e+06 2.301
18 regular 7 33 633 73 1.500000e+00 0.292 slower 0 3.559205e+06 3.559207e+06 1.957
18 regular 7 34 634 46 1.500000e+00 0.274 faster 0 3.559209e+06 3.559211e+06 2.153
18 regular 7 35 635 45 1.500000e+00 0.496 slower 1 3.559213e+06 3.559215e+06 2.365
18 regular 7 36 636 74 1.500000e+00 0.321 faster 1 3.559217e+06 3.559220e+06 2.962
18 regular 7 37 637 74 1.500000e+00 0.246 faster 1 3.559221e+06 3.559223e+06 2.382
18 regular 7 38 638 47 1.500000e+00 0.512 slower 1 3.559224e+06 3.559227e+06 2.394
18 regular 7 39 639 73 1.500000e+00 0.448 faster 1 3.559228e+06 3.559230e+06 2.122
18 regular 7 40 640 72 1.500000e+00 0.126 faster 1 3.559231e+06 3.559233e+06 2.223
18 regular 7 41 641 72 1.500000e+00 0.533 faster 1 3.559236e+06 3.559238e+06 2.205
18 regular 7 42 642 71 1.500000e+00 0.466 faster 1 3.559240e+06 3.559242e+06 2.194
18 regular 7 43 643 49 1.500000e+00 0.480 faster 0 3.559243e+06 3.559245e+06 2.025
18 regular 7 44 644 72 1.500000e+00 0.369 faster 1 3.559246e+06 3.559248e+06 2.141
18 regular 7 45 645 49 1.500000e+00 0.426 slower 1 3.559249e+06 3.559251e+06 2.192
18 regular 7 46 646 49 1.500000e+00 0.496 faster 0 3.559252e+06 3.559255e+06 2.223
18 regular 7 47 647 48 1.500000e+00 0.562 slower 1 3.559256e+06 3.559258e+06 2.222
18 regular 7 48 648 71 1.500000e+00 0.553 faster 1 3.559259e+06 3.559262e+06 2.254
18 regular 7 49 649 71 1.500000e+00 0.514 slower 0 3.559263e+06 3.559265e+06 2.487
18 regular 7 50 650 48 1.500000e+00 0.589 faster 0 3.559266e+06 3.559269e+06 2.619
18 regular 7 51 651 47 1.500000e+00 0.447 slower 1 3.559270e+06 3.559272e+06 2.144
18 regular 7 52 652 48 1.500000e+00 0.582 faster 0 3.559273e+06 3.559276e+06 2.177
18 regular 7 53 653 73 1.500000e+00 0.459 slower 0 3.559277e+06 3.559279e+06 2.381
18 regular 7 54 654 74 1.500000e+00 0.501 faster 1 3.559280e+06 3.559283e+06 2.247
18 regular 7 55 655 46 1.500000e+00 0.416 slower 1 3.559284e+06 3.559286e+06 2.216
18 regular 7 56 656 73 1.500000e+00 0.273 faster 1 3.559287e+06 3.559289e+06 2.357
18 regular 7 57 657 47 1.500000e+00 0.346 faster 0 3.559290e+06 3.559293e+06 2.732
18 regular 7 58 658 46 1.500000e+00 0.180 slower 1 3.559294e+06 3.559296e+06 2.075
18 regular 7 59 659 47 1.500000e+00 0.329 slower 1 3.559297e+06 3.559299e+06 2.175
18 regular 7 60 660 47 1.500000e+00 0.187 faster 0 3.559300e+06 3.559302e+06 2.406
18 regular 7 61 661 46 1.500000e+00 0.287 slower 1 3.559303e+06 3.559306e+06 2.266
18 regular 7 62 662 47 1.500000e+00 0.293 slower 1 3.559307e+06 3.559309e+06 2.572
18 regular 7 63 663 73 1.500000e+00 0.406 faster 1 3.559311e+06 3.559313e+06 2.287
18 regular 7 64 664 48 1.500000e+00 0.102 slower 1 3.559314e+06 3.559316e+06 1.908
18 regular 7 65 665 48 1.500000e+00 0.382 faster 0 3.559319e+06 3.559321e+06 2.335
18 regular 7 66 666 47 1.500000e+00 0.276 slower 1 3.559323e+06 3.559325e+06 2.414
18 regular 7 67 667 72 1.500000e+00 0.446 faster 1 3.559326e+06 3.559329e+06 2.462
18 regular 7 68 668 48 1.500000e+00 0.235 slower 1 3.559330e+06 3.559332e+06 2.331
18 regular 7 69 669 71 1.500000e+00 0.238 faster 1 3.559333e+06 3.559336e+06 2.433
18 regular 7 70 670 71 1.500000e+00 0.383 slower 0 3.559337e+06 3.559339e+06 1.977
18 regular 7 71 671 72 1.500000e+00 0.521 faster 1 3.559340e+06 3.559342e+06 2.236
18 regular 7 72 672 49 1.500000e+00 0.487 slower 1 3.559343e+06 3.559345e+06 2.214
18 regular 7 73 673 71 1.500000e+00 0.364 faster 1 3.559346e+06 3.559349e+06 2.285
18 regular 7 74 674 50 1.500000e+00 0.498 slower 1 3.559350e+06 3.559352e+06 2.140
18 regular 7 75 675 70 1.500000e+00 0.521 faster 1 3.559353e+06 3.559356e+06 2.381
18 regular 7 76 676 51 1.500000e+00 0.598 slower 1 3.559357e+06 3.559359e+06 2.275
18 regular 7 77 677 51 1.500000e+00 0.368 slower 1 3.559360e+06 3.559363e+06 2.322
18 regular 7 78 678 52 1.500000e+00 0.418 slower 1 3.559364e+06 3.559366e+06 2.375
18 regular 7 79 679 52 1.500000e+00 0.541 slower 1 3.559367e+06 3.559370e+06 2.389
18 regular 7 80 680 53 1.500000e+00 0.118 slower 1 3.559370e+06 3.559373e+06 2.554
18 regular 7 81 681 53 1.500000e+00 0.438 faster 0 3.559374e+06 3.559377e+06 2.471
18 regular 7 82 682 68 1.500000e+00 0.129 slower 0 3.559378e+06 3.559381e+06 2.575
18 regular 7 83 683 51 1.500000e+00 0.143 faster 0 3.559382e+06 3.559384e+06 2.295
18 regular 7 84 684 70 1.500000e+00 0.177 slower 0 3.559386e+06 3.559388e+06 2.710
18 regular 7 85 685 71 1.500000e+00 0.495 faster 1 3.559389e+06 3.559392e+06 2.121
18 regular 7 86 686 50 1.500000e+00 0.575 faster 0 3.559393e+06 3.559395e+06 2.352
18 regular 7 87 687 49 1.500000e+00 0.349 faster 0 3.559401e+06 3.559403e+06 2.285
18 regular 7 88 688 48 1.500000e+00 0.230 slower 1 3.559404e+06 3.559406e+06 2.179
18 regular 7 89 689 72 1.500000e+00 0.596 slower 0 3.559408e+06 3.559410e+06 2.331
18 regular 7 90 690 73 1.500000e+00 0.102 faster 1 3.559411e+06 3.559413e+06 2.034
18 regular 7 91 691 72 1.500000e+00 0.340 slower 0 3.559414e+06 3.559416e+06 2.261
18 regular 7 92 692 47 1.500000e+00 0.436 slower 1 3.559417e+06 3.559419e+06 2.219
18 regular 7 93 693 47 1.500000e+00 0.296 slower 1 3.559420e+06 3.559423e+06 2.517
18 regular 7 94 694 72 1.500000e+00 0.210 faster 1 3.559424e+06 3.559426e+06 2.082
18 regular 7 95 695 72 1.500000e+00 0.418 faster 1 3.559427e+06 3.559429e+06 2.068
18 regular 7 96 696 49 1.500000e+00 0.430 faster 0 3.559433e+06 3.559436e+06 2.474
18 regular 7 97 697 72 1.500000e+00 0.408 faster 1 3.559437e+06 3.559440e+06 2.472
18 regular 7 98 698 48 1.500000e+00 0.132 slower 1 3.559441e+06 3.559443e+06 2.347
18 regular 7 99 699 71 1.500000e+00 0.496 faster 1 3.559445e+06 3.559447e+06 2.412
18 regular 7 100 700 49 1.500000e+00 0.389 slower 1 3.559448e+06 3.559451e+06 2.266
18 irregular 8 1 701 70 3 0.168 slower 0 3.559467e+06 3.559471e+06 3.813
18 irregular 8 2 702 71 3 0.597 slower 0 3.559473e+06 3.559476e+06 3.710
18 irregular 8 3 703 72 1.500000e+00 0.190 slower 0 3.559477e+06 3.559479e+06 2.208
18 irregular 8 4 704 47 3 0.524 faster 0 3.559480e+06 3.559486e+06 5.384
18 irregular 8 5 705 46 3 0.485 slower 1 3.559487e+06 3.559491e+06 3.696
18 irregular 8 6 706 74 1 0.248 faster 1 3.559492e+06 3.559494e+06 1.750
18 irregular 8 7 707 47 1.500000e+00 0.220 faster 0 3.559495e+06 3.559497e+06 2.261
18 irregular 8 8 708 46 1 0.113 slower 1 3.559498e+06 3.559500e+06 1.687
18 irregular 8 9 709 46 1 0.123 faster 0 3.559501e+06 3.559503e+06 1.841
18 irregular 8 10 710 45 1 0.501 faster 0 3.559504e+06 3.559506e+06 1.702
18 irregular 8 11 711 76 3 0.217 slower 0 3.559506e+06 3.559510e+06 3.834
18 irregular 8 12 712 77 1.500000e+00 0.238 faster 1 3.559511e+06 3.559513e+06 2.190
18 irregular 8 13 713 44 3 0.378 slower 1 3.559514e+06 3.559518e+06 3.633
18 irregular 8 14 714 76 2.500000e+00 0.130 faster 1 3.559519e+06 3.559522e+06 2.835
18 irregular 8 15 715 75 3 0.196 slower 0 3.559523e+06 3.559526e+06 3.392
18 irregular 8 16 716 44 2.500000e+00 0.519 slower 1 3.559527e+06 3.559530e+06 3.281
18 irregular 8 17 717 76 2 0.346 faster 1 3.559531e+06 3.559534e+06 2.720
18 irregular 8 18 718 45 2 0.579 faster 0 3.559535e+06 3.559538e+06 2.770
18 irregular 8 19 719 76 2.500000e+00 0.111 faster 1 3.559539e+06 3.559542e+06 3.320
18 irregular 8 20 720 44 3 0.584 slower 1 3.559546e+06 3.559550e+06 3.715
18 irregular 8 21 721 45 1 0.379 faster 0 3.559551e+06 3.559553e+06 1.737
18 irregular 8 22 722 76 2.500000e+00 0.123 slower 0 3.559554e+06 3.559558e+06 3.487
18 irregular 8 23 723 77 2.500000e+00 0.397 faster 1 3.559559e+06 3.559563e+06 3.563
18 irregular 8 24 724 77 2 0.527 faster 1 3.559565e+06 3.559568e+06 2.937
18 irregular 8 25 725 76 1.500000e+00 0.179 slower 0 3.559570e+06 3.559572e+06 2.264
18 irregular 8 26 726 43 2.500000e+00 0.335 slower 1 3.559573e+06 3.559577e+06 3.166
18 irregular 8 27 727 77 2 0.274 faster 1 3.559577e+06 3.559580e+06 2.645
18 irregular 8 28 728 44 3 0.231 slower 1 3.559581e+06 3.559585e+06 3.584
18 irregular 8 29 729 76 3 0.420 faster 1 3.559586e+06 3.559589e+06 3.642
18 irregular 8 30 730 75 1 0.341 faster 1 3.559590e+06 3.559592e+06 1.849
18 irregular 8 31 731 45 2.500000e+00 0.507 slower 1 3.559593e+06 3.559597e+06 3.568
18 irregular 8 32 732 74 2.500000e+00 0.148 faster 1 3.559598e+06 3.559601e+06 3.497
18 irregular 8 33 733 46 2.500000e+00 0.258 slower 1 3.559602e+06 3.559605e+06 3.312
18 irregular 8 34 734 73 2.500000e+00 0.107 faster 1 3.559606e+06 3.559609e+06 3.251
18 irregular 8 35 735 47 1.500000e+00 0.276 slower 1 3.559610e+06 3.559613e+06 2.380
18 irregular 8 36 736 72 2 0.136 faster 1 3.559614e+06 3.559616e+06 2.739
18 irregular 8 37 737 72 2 0.450 faster 1 3.559617e+06 3.559620e+06 2.928
18 irregular 8 38 738 71 1.500000e+00 0.290 faster 1 3.559621e+06 3.559624e+06 2.280
18 irregular 8 39 739 49 1.500000e+00 0.111 slower 1 3.559624e+06 3.559627e+06 2.253
18 irregular 8 40 740 70 3 0.532 faster 1 3.559628e+06 3.559632e+06 4.079
18 irregular 8 41 741 50 1 0.303 slower 1 3.559633e+06 3.559635e+06 1.741
18 irregular 8 42 742 51 1.500000e+00 0.393 faster 0 3.559636e+06 3.559639e+06 2.214
18 irregular 8 43 743 50 2.500000e+00 0.117 slower 1 3.559639e+06 3.559642e+06 3.120
18 irregular 8 44 744 70 2 0.167 faster 1 3.559644e+06 3.559646e+06 2.477
18 irregular 8 45 745 69 2 0.435 slower 0 3.559647e+06 3.559650e+06 2.765
18 irregular 8 46 746 70 3 0.429 faster 1 3.559651e+06 3.559655e+06 3.636
18 irregular 8 47 747 70 2.500000e+00 0.261 faster 1 3.559656e+06 3.559659e+06 3.300
18 irregular 8 48 748 51 1 0.278 faster 0 3.559660e+06 3.559662e+06 1.877
18 irregular 8 49 749 70 1 0.185 faster 1 3.559662e+06 3.559665e+06 2.309
18 irregular 8 50 750 50 3 0.270 slower 1 3.559667e+06 3.559671e+06 3.827
18 irregular 8 51 751 51 2 0.309 slower 1 3.559672e+06 3.559675e+06 2.835
18 irregular 8 52 752 69 2.500000e+00 0.470 faster 1 3.559677e+06 3.559680e+06 3.722
18 irregular 8 53 753 52 1.500000e+00 0.129 slower 1 3.559681e+06 3.559683e+06 2.171
18 irregular 8 54 754 68 3 0.111 slower 0 3.559684e+06 3.559688e+06 3.512
18 irregular 8 55 755 51 1.500000e+00 0.379 slower 1 3.559689e+06 3.559692e+06 2.291
18 irregular 8 56 756 68 1.500000e+00 0.547 slower 0 3.559693e+06 3.559695e+06 2.296
18 irregular 8 57 757 51 2 0.451 faster 0 3.559697e+06 3.559700e+06 2.840
18 irregular 8 58 758 50 3 0.175 slower 1 3.559700e+06 3.559704e+06 3.708
18 irregular 8 59 759 50 2.500000e+00 0.497 faster 0 3.559705e+06 3.559709e+06 3.212
18 irregular 8 60 760 71 2.500000e+00 0.141 slower 0 3.559710e+06 3.559713e+06 3.380
18 irregular 8 61 761 48 2 0.429 slower 1 3.559714e+06 3.559717e+06 2.846
18 irregular 8 62 762 71 3 0.147 faster 1 3.559718e+06 3.559722e+06 3.789
18 irregular 8 63 763 71 1 0.364 slower 0 3.559723e+06 3.559725e+06 1.839
18 irregular 8 64 764 48 1 0.241 faster 0 3.559725e+06 3.559728e+06 2.363
18 irregular 8 65 765 47 2 0.190 faster 0 3.559729e+06 3.559731e+06 2.812
18 irregular 8 66 766 74 2 0.575 faster 1 3.559733e+06 3.559736e+06 2.832
18 irregular 8 67 767 73 1 0.113 faster 1 3.559736e+06 3.559738e+06 2.033
18 irregular 8 68 768 47 2.500000e+00 0.204 slower 1 3.559739e+06 3.559743e+06 3.330
18 irregular 8 69 769 72 1 0.286 faster 1 3.559743e+06 3.559746e+06 2.043
18 irregular 8 70 770 48 1.500000e+00 0.210 faster 0 3.559746e+06 3.559749e+06 2.529
18 irregular 8 71 771 73 1 0.495 faster 1 3.559750e+06 3.559752e+06 1.760
18 irregular 8 72 772 48 2 0.228 slower 1 3.559753e+06 3.559756e+06 2.991
18 irregular 8 73 773 48 1 0.512 faster 0 3.559757e+06 3.559759e+06 1.966
18 irregular 8 74 774 47 2.500000e+00 0.260 slower 1 3.559760e+06 3.559763e+06 3.201
18 irregular 8 75 775 48 2.500000e+00 0.393 slower 1 3.559764e+06 3.559768e+06 3.583
18 irregular 8 76 776 72 1.500000e+00 0.547 faster 1 3.559769e+06 3.559771e+06 2.232
18 irregular 8 77 777 71 2.500000e+00 0.504 faster 1 3.559772e+06 3.559776e+06 3.446
18 irregular 8 78 778 71 2 0.389 faster 1 3.559777e+06 3.559780e+06 3.057
18 irregular 8 79 779 50 2 0.500 faster 0 3.559781e+06 3.559784e+06 3.294
18 irregular 8 80 780 71 2 0.463 faster 1 3.559785e+06 3.559788e+06 2.796
18 irregular 8 81 781 71 1 0.581 faster 1 3.559790e+06 3.559792e+06 1.714
18 irregular 8 82 782 50 1.500000e+00 0.593 faster 0 3.559793e+06 3.559795e+06 2.256
18 irregular 8 83 783 71 1 0.318 faster 1 3.559797e+06 3.559798e+06 1.739
18 irregular 8 84 784 71 3 0.233 slower 0 3.559799e+06 3.559803e+06 3.781
18 irregular 8 85 785 48 2 0.324 slower 1 3.559804e+06 3.559807e+06 2.788
18 irregular 8 86 786 71 1.500000e+00 0.545 faster 1 3.559808e+06 3.559811e+06 2.158
18 irregular 8 87 787 49 1.500000e+00 0.228 faster 0 3.559811e+06 3.559814e+06 2.301
18 irregular 8 88 788 72 1.500000e+00 0.211 slower 0 3.559815e+06 3.559817e+06 2.248
18 irregular 8 89 789 47 3 0.279 slower 1 3.559818e+06 3.559822e+06 3.875
18 irregular 8 90 790 72 1.500000e+00 0.142 faster 1 3.559822e+06 3.559825e+06 2.340
18 irregular 8 91 791 48 1 0.528 slower 1 3.559826e+06 3.559828e+06 1.874
18 irregular 8 92 792 49 2 0.413 slower 1 3.559829e+06 3.559832e+06 3.263
18 irregular 8 93 793 71 1.500000e+00 0.517 faster 1 3.559833e+06 3.559836e+06 2.212
18 irregular 8 94 794 50 2.500000e+00 0.404 slower 1 3.559837e+06 3.559840e+06 3.314
18 irregular 8 95 795 50 2 0.325 faster 0 3.559841e+06 3.559844e+06 2.629
18 irregular 8 96 796 49 3 0.346 slower 1 3.559845e+06 3.559849e+06 3.418
18 irregular 8 97 797 50 1 0.397 faster 0 3.559850e+06 3.559851e+06 1.657
18 irregular 8 98 798 49 1.500000e+00 0.344 faster 0 3.559852e+06 3.559855e+06 2.292
18 irregular 8 99 799 48 3 0.138 faster 0 3.559857e+06 3.559860e+06 3.753
18 irregular 8 100 800 73 1 0.449 faster 1 3.559862e+06 3.559863e+06 1.723
18 regular 9 1 801 73 1 0.111 faster 1 3.560086e+06 3.560088e+06 1.843
18 regular 9 2 802 48 1 0.288 slower 1 3.560089e+06 3.560091e+06 1.825
18 regular 9 3 803 48 1 0.325 slower 1 3.560092e+06 3.560094e+06 1.717
18 regular 9 4 804 49 1 0.584 slower 1 3.560095e+06 3.560097e+06 1.703
18 regular 9 5 805 71 1 0.354 slower 0 3.560098e+06 3.560100e+06 1.668
18 regular 9 6 806 72 1 0.192 faster 1 3.560100e+06 3.560102e+06 1.689
18 regular 9 7 807 71 1 0.481 faster 1 3.560104e+06 3.560105e+06 1.622
18 regular 9 8 808 49 1 0.425 slower 1 3.560106e+06 3.560108e+06 1.596
18 regular 9 9 809 50 1 0.204 slower 1 3.560109e+06 3.560110e+06 1.577
18 regular 9 10 810 70 1 0.123 faster 1 3.560111e+06 3.560113e+06 1.542
18 regular 9 11 811 51 1 0.218 slower 1 3.560113e+06 3.560115e+06 1.776
18 regular 9 12 812 69 1 0.545 faster 1 3.560116e+06 3.560118e+06 1.618
18 regular 9 13 813 68 1 0.389 slower 0 3.560119e+06 3.560121e+06 1.658
18 regular 9 14 814 69 1 0.312 slower 0 3.560122e+06 3.560124e+06 1.632
18 regular 9 15 815 70 1 0.493 faster 1 3.560125e+06 3.560127e+06 1.948
18 regular 9 16 816 50 1 0.266 slower 1 3.560128e+06 3.560130e+06 1.961
18 regular 9 17 817 69 1 0.136 slower 0 3.560131e+06 3.560133e+06 2.271
18 regular 9 18 818 50 1 0.582 slower 1 3.560135e+06 3.560137e+06 2.419
18 regular 9 19 819 50 1 0.236 faster 0 3.560138e+06 3.560140e+06 1.984
18 regular 9 20 820 49 1 0.364 faster 0 3.560141e+06 3.560143e+06 1.455
18 regular 9 21 821 48 1 0.142 slower 1 3.560144e+06 3.560145e+06 1.546
18 regular 9 22 822 71 1 0.288 faster 1 3.560146e+06 3.560148e+06 1.500
18 regular 9 23 823 71 1 0.239 slower 0 3.560149e+06 3.560150e+06 1.904
18 regular 9 24 824 72 1 0.244 faster 1 3.560151e+06 3.560153e+06 1.450
18 regular 9 25 825 49 1 0.251 slower 1 3.560154e+06 3.560155e+06 1.670
18 regular 9 26 826 71 1 0.105 faster 1 3.560156e+06 3.560158e+06 1.475
18 regular 9 27 827 50 1 0.396 faster 0 3.560159e+06 3.560160e+06 1.528
18 regular 9 28 828 49 1 0.486 faster 0 3.560161e+06 3.560163e+06 1.656
18 regular 9 29 829 72 1 0.290 faster 1 3.560164e+06 3.560166e+06 1.844
18 regular 9 30 830 48 1 0.201 slower 1 3.560167e+06 3.560168e+06 1.449
18 regular 9 31 831 71 1 0.327 faster 1 3.560169e+06 3.560171e+06 1.713
18 regular 9 32 832 71 1 0.314 faster 1 3.560172e+06 3.560173e+06 1.641
18 regular 9 33 833 50 1 0.367 slower 1 3.560174e+06 3.560176e+06 1.475
18 regular 9 34 834 70 1 0.314 faster 1 3.560177e+06 3.560178e+06 1.641
18 regular 9 35 835 69 1 0.113 slower 0 3.560179e+06 3.560181e+06 1.579
18 regular 9 36 836 70 1 0.155 faster 1 3.560181e+06 3.560183e+06 1.620
18 regular 9 37 837 50 1 0.226 slower 1 3.560184e+06 3.560186e+06 1.837
18 regular 9 38 838 69 1 0.113 faster 1 3.560187e+06 3.560188e+06 1.657
18 regular 9 39 839 69 1 0.150 slower 0 3.560189e+06 3.560191e+06 1.592
18 regular 9 40 840 70 1 0.257 faster 1 3.560191e+06 3.560193e+06 1.604
18 regular 9 41 841 69 1 0.580 slower 0 3.560194e+06 3.560196e+06 1.565
18 regular 9 42 842 70 1 0.368 faster 1 3.560197e+06 3.560198e+06 1.609
18 regular 9 43 843 70 1 0.401 slower 0 3.560200e+06 3.560202e+06 1.713
18 regular 9 44 844 49 1 0.425 slower 1 3.560203e+06 3.560205e+06 1.857
18 regular 9 45 845 70 1 0.340 faster 1 3.560206e+06 3.560208e+06 2.005
18 regular 9 46 846 50 1 0.532 slower 1 3.560209e+06 3.560211e+06 1.650
18 regular 9 47 847 69 1 0.420 faster 1 3.560212e+06 3.560213e+06 1.510
18 regular 9 48 848 51 1 0.599 slower 1 3.560215e+06 3.560216e+06 1.717
18 regular 9 49 849 68 1 0.499 faster 1 3.560217e+06 3.560219e+06 1.577
18 regular 9 50 850 52 1 0.595 slower 1 3.560221e+06 3.560222e+06 1.743
18 regular 9 51 851 53 1 0.234 faster 0 3.560223e+06 3.560225e+06 1.966
18 regular 9 52 852 68 1 0.166 slower 0 3.560226e+06 3.560228e+06 1.858
18 regular 9 53 853 51 1 0.460 slower 1 3.560229e+06 3.560231e+06 1.744
18 regular 9 54 854 51 1 0.253 slower 1 3.560232e+06 3.560233e+06 1.648
18 regular 9 55 855 52 1 0.387 slower 1 3.560234e+06 3.560236e+06 1.947
18 regular 9 56 856 68 1 0.182 slower 0 3.560237e+06 3.560239e+06 1.976
18 regular 9 57 857 69 1 0.226 faster 1 3.560240e+06 3.560241e+06 1.593
18 regular 9 58 858 52 1 0.266 slower 1 3.560242e+06 3.560244e+06 1.837
18 regular 9 59 859 68 1 0.338 faster 1 3.560245e+06 3.560247e+06 1.586
18 regular 9 60 860 53 1 0.430 slower 1 3.560248e+06 3.560250e+06 1.936
18 regular 9 61 861 53 1 0.308 faster 0 3.560251e+06 3.560252e+06 1.540
18 regular 9 62 862 68 1 0.271 faster 1 3.560253e+06 3.560255e+06 1.860
18 regular 9 63 863 53 1 0.226 slower 1 3.560256e+06 3.560258e+06 1.690
18 regular 9 64 864 67 1 0.102 faster 1 3.560258e+06 3.560260e+06 1.659
18 regular 9 65 865 54 1 0.275 slower 1 3.560261e+06 3.560262e+06 1.458
18 regular 9 66 866 54 1 0.389 faster 0 3.560263e+06 3.560265e+06 1.535
18 regular 9 67 867 67 1 0.434 slower 0 3.560266e+06 3.560268e+06 1.544
18 regular 9 68 868 68 1 0.588 faster 1 3.560269e+06 3.560271e+06 2.170
18 regular 9 69 869 53 1 0.265 slower 1 3.560272e+06 3.560274e+06 2.231
18 regular 9 70 870 67 1 0.571 slower 0 3.560275e+06 3.560277e+06 1.684
18 regular 9 71 871 68 1 0.141 slower 0 3.560278e+06 3.560280e+06 1.747
18 regular 9 72 872 69 1 0.396 faster 1 3.560281e+06 3.560283e+06 2.272
18 regular 9 73 873 52 1 0.214 faster 0 3.560284e+06 3.560286e+06 1.967
18 regular 9 74 874 51 1 0.585 slower 1 3.560287e+06 3.560289e+06 2.095
18 regular 9 75 875 51 1 0.396 slower 1 3.560290e+06 3.560292e+06 1.753
18 regular 9 76 876 68 1 0.358 slower 0 3.560293e+06 3.560294e+06 1.547
18 regular 9 77 877 51 1 0.591 slower 1 3.560296e+06 3.560297e+06 1.578
18 regular 9 78 878 51 1 0.248 slower 1 3.560298e+06 3.560300e+06 1.674
18 regular 9 79 879 52 1 0.216 slower 1 3.560301e+06 3.560303e+06 1.787
18 regular 9 80 880 52 1 0.247 slower 1 3.560303e+06 3.560305e+06 1.824
18 regular 9 81 881 67 1 0.156 faster 1 3.560306e+06 3.560308e+06 1.649
18 regular 9 82 882 67 1 0.366 slower 0 3.560309e+06 3.560311e+06 2.049
18 regular 9 83 883 52 1 0.165 slower 1 3.560312e+06 3.560313e+06 1.616
18 regular 9 84 884 53 1 0.596 faster 0 3.560314e+06 3.560316e+06 1.633
18 regular 9 85 885 52 1 0.428 slower 1 3.560317e+06 3.560319e+06 2.194
18 regular 9 86 886 68 1 0.538 faster 1 3.560320e+06 3.560322e+06 1.648
18 regular 9 87 887 53 1 0.195 slower 1 3.560323e+06 3.560325e+06 1.828
18 regular 9 88 888 67 1 0.401 faster 1 3.560326e+06 3.560327e+06 1.655
18 regular 9 89 889 54 1 0.106 slower 1 3.560328e+06 3.560330e+06 1.757
18 regular 9 90 890 54 1 0.518 faster 0 3.560331e+06 3.560333e+06 1.726
18 regular 9 91 891 53 1 0.498 faster 0 3.560334e+06 3.560336e+06 1.766
18 regular 9 92 892 52 1 0.123 faster 0 3.560337e+06 3.560338e+06 1.865
18 regular 9 93 893 69 1 0.414 faster 1 3.560339e+06 3.560341e+06 1.693
18 regular 9 94 894 52 1 0.400 faster 0 3.560342e+06 3.560344e+06 1.783
18 regular 9 95 895 69 1 0.402 faster 1 3.560345e+06 3.560347e+06 1.654
18 regular 9 96 896 51 1 0.257 slower 1 3.560348e+06 3.560349e+06 1.587
18 regular 9 97 897 68 1 0.133 faster 1 3.560350e+06 3.560352e+06 1.677
18 regular 9 98 898 68 1 0.586 faster 1 3.560354e+06 3.560355e+06 1.686
18 regular 9 99 899 67 1 0.279 faster 1 3.560356e+06 3.560358e+06 1.605
18 regular 9 100 900 53 1 0.504 faster 0 3.560359e+06 3.560361e+06 1.749
18 irregular 10 1 901 52 1 0.568 slower 1 3.560377e+06 3.560379e+06 2.096
18 irregular 10 2 902 53 3 0.284 slower 1 3.560380e+06 3.560386e+06 5.908
18 irregular 10 3 903 67 2.500000e+00 0.208 faster 1 3.560387e+06 3.560390e+06 3.336
18 irregular 10 4 904 66 2 0.488 faster 1 3.560392e+06 3.560395e+06 2.783
18 irregular 10 5 905 66 1.500000e+00 0.260 faster 1 3.560396e+06 3.560398e+06 2.302
18 irregular 10 6 906 55 2.500000e+00 0.598 slower 1 3.560400e+06 3.560403e+06 3.326
18 irregular 10 7 907 65 1.500000e+00 0.448 faster 1 3.560404e+06 3.560406e+06 2.312
18 irregular 10 8 908 56 2.500000e+00 0.267 faster 0 3.560407e+06 3.560411e+06 3.309
18 irregular 10 9 909 55 2 0.536 faster 0 3.560412e+06 3.560415e+06 2.884
18 irregular 10 10 910 54 1 0.308 faster 0 3.560416e+06 3.560418e+06 1.660
18 irregular 10 11 911 53 1.500000e+00 0.489 faster 0 3.560419e+06 3.560421e+06 2.193
18 irregular 10 12 912 68 2.500000e+00 0.462 slower 0 3.560422e+06 3.560426e+06 3.357
18 irregular 10 13 913 69 3 0.365 faster 1 3.560427e+06 3.560431e+06 3.744
18 irregular 10 14 914 69 1 0.242 slower 0 3.560432e+06 3.560433e+06 1.665
18 irregular 10 15 915 50 2.500000e+00 0.164 slower 1 3.560434e+06 3.560438e+06 3.395
18 irregular 10 16 916 51 2.500000e+00 0.560 slower 1 3.560439e+06 3.560442e+06 3.232
18 irregular 10 17 917 69 1 0.309 faster 1 3.560443e+06 3.560445e+06 1.830
18 irregular 10 18 918 68 2.500000e+00 0.505 slower 0 3.560446e+06 3.560449e+06 3.135
18 irregular 10 19 919 51 2 0.558 slower 1 3.560450e+06 3.560454e+06 3.388
18 irregular 10 20 920 69 1.500000e+00 0.263 slower 0 3.560455e+06 3.560457e+06 2.590
18 irregular 10 21 921 70 3 0.156 faster 1 3.560458e+06 3.560462e+06 3.854
18 irregular 10 22 922 51 3 0.463 faster 0 3.560463e+06 3.560467e+06 3.874
18 irregular 10 23 923 50 1 0.143 faster 0 3.560468e+06 3.560470e+06 2.289
18 irregular 10 24 924 49 1.500000e+00 0.391 slower 1 3.560471e+06 3.560474e+06 2.527
18 irregular 10 25 925 71 2 0.473 faster 1 3.560475e+06 3.560478e+06 2.707
18 irregular 10 26 926 50 1 0.468 faster 0 3.560479e+06 3.560480e+06 1.779
18 irregular 10 27 927 49 2.500000e+00 0.554 slower 1 3.560482e+06 3.560486e+06 4.045
18 irregular 10 28 928 71 1 0.165 faster 1 3.560487e+06 3.560488e+06 1.904
18 irregular 10 29 929 70 3 0.231 faster 1 3.560490e+06 3.560493e+06 3.705
18 irregular 10 30 930 50 2 0.317 faster 0 3.560494e+06 3.560497e+06 2.756
18 irregular 10 31 931 49 1 0.523 faster 0 3.560498e+06 3.560500e+06 1.844
18 irregular 10 32 932 72 1 0.261 faster 1 3.560501e+06 3.560503e+06 1.749
18 irregular 10 33 933 71 1 0.493 faster 1 3.560505e+06 3.560506e+06 1.830
18 irregular 10 34 934 49 3 0.571 faster 0 3.560508e+06 3.560512e+06 3.917
18 irregular 10 35 935 72 1.500000e+00 0.505 slower 0 3.560513e+06 3.560516e+06 2.339
18 irregular 10 36 936 73 2.500000e+00 0.528 faster 1 3.560517e+06 3.560520e+06 3.166
18 irregular 10 37 937 72 1 0.478 faster 1 3.560521e+06 3.560523e+06 2.130
18 irregular 10 38 938 48 3 0.337 slower 1 3.560524e+06 3.560528e+06 3.774
18 irregular 10 39 939 71 1.500000e+00 0.457 slower 0 3.560529e+06 3.560532e+06 2.372
18 irregular 10 40 940 48 1.500000e+00 0.477 faster 0 3.560533e+06 3.560536e+06 2.374
18 irregular 10 41 941 47 1.500000e+00 0.405 slower 1 3.560537e+06 3.560540e+06 2.361
18 irregular 10 42 942 47 2.500000e+00 0.164 slower 1 3.560540e+06 3.560544e+06 3.192
18 irregular 10 43 943 48 1 0.280 slower 1 3.560545e+06 3.560546e+06 1.704
18 irregular 10 44 944 48 2.500000e+00 0.252 slower 1 3.560547e+06 3.560550e+06 3.121
18 irregular 10 45 945 71 3 0.541 faster 1 3.560552e+06 3.560555e+06 3.830
18 irregular 10 46 946 49 1 0.237 slower 1 3.560556e+06 3.560558e+06 1.882
18 irregular 10 47 947 50 1 0.198 faster 0 3.560559e+06 3.560561e+06 1.701
18 irregular 10 48 948 71 1 0.385 slower 0 3.560562e+06 3.560564e+06 2.022
18 irregular 10 49 949 72 1.500000e+00 0.558 faster 1 3.560565e+06 3.560567e+06 2.240
18 irregular 10 50 950 72 3 0.473 slower 0 3.560568e+06 3.560572e+06 3.817
18 irregular 10 51 951 73 3 0.316 faster 1 3.560573e+06 3.560577e+06 3.776
18 irregular 10 52 952 72 2 0.245 slower 0 3.560578e+06 3.560581e+06 3.046
18 irregular 10 53 953 47 3 0.323 faster 0 3.560583e+06 3.560586e+06 3.762
18 irregular 10 54 954 74 2.500000e+00 0.403 slower 0 3.560588e+06 3.560591e+06 3.463
18 irregular 10 55 955 45 2 0.276 slower 1 3.560592e+06 3.560595e+06 2.888
18 irregular 10 56 956 75 2 0.438 slower 0 3.560597e+06 3.560599e+06 2.768
18 irregular 10 57 957 76 2.500000e+00 0.201 slower 0 3.560600e+06 3.560604e+06 3.426
18 irregular 10 58 958 77 2 0.152 faster 1 3.560604e+06 3.560608e+06 3.070
18 irregular 10 59 959 44 1.500000e+00 0.187 faster 0 3.560608e+06 3.560611e+06 2.614
18 irregular 10 60 960 43 3 0.422 slower 1 3.560612e+06 3.560616e+06 4.040
18 irregular 10 61 961 77 2 0.545 faster 1 3.560617e+06 3.560620e+06 2.810
18 irregular 10 62 962 76 3 0.322 faster 1 3.560621e+06 3.560625e+06 3.854
18 irregular 10 63 963 76 2.500000e+00 0.579 faster 1 3.560626e+06 3.560630e+06 3.305
18 irregular 10 64 964 75 2.500000e+00 0.327 slower 0 3.560631e+06 3.560634e+06 3.336
18 irregular 10 65 965 44 2 0.411 slower 1 3.560635e+06 3.560638e+06 2.756
18 irregular 10 66 966 44 2 0.291 slower 1 3.560639e+06 3.560642e+06 2.746
18 irregular 10 67 967 45 2.500000e+00 0.389 slower 1 3.560643e+06 3.560646e+06 3.280
18 irregular 10 68 968 75 1.500000e+00 0.300 faster 1 3.560647e+06 3.560650e+06 2.377
18 irregular 10 69 969 46 2 0.170 slower 1 3.560650e+06 3.560653e+06 2.773
18 irregular 10 70 970 74 3 0.457 faster 1 3.560654e+06 3.560658e+06 3.639
18 irregular 10 71 971 47 1.500000e+00 0.514 slower 1 3.560659e+06 3.560662e+06 2.653
18 irregular 10 72 972 47 3 0.498 slower 1 3.560663e+06 3.560668e+06 4.683
18 irregular 10 73 973 48 3 0.218 faster 0 3.560668e+06 3.560672e+06 3.862
18 irregular 10 74 974 73 2 0.424 faster 1 3.560673e+06 3.560676e+06 3.030
18 irregular 10 75 975 73 1.500000e+00 0.114 faster 1 3.560677e+06 3.560680e+06 2.527
18 irregular 10 76 976 72 2 0.346 slower 0 3.560681e+06 3.560684e+06 3.242
18 irregular 10 77 977 73 1 0.180 faster 1 3.560685e+06 3.560687e+06 1.700
18 irregular 10 78 978 47 3 0.331 slower 1 3.560688e+06 3.560692e+06 3.892
18 irregular 10 79 979 48 2.500000e+00 0.408 faster 0 3.560693e+06 3.560696e+06 3.320
18 irregular 10 80 980 47 1.500000e+00 0.220 slower 1 3.560697e+06 3.560700e+06 2.199
18 irregular 10 81 981 73 1.500000e+00 0.171 faster 1 3.560701e+06 3.560703e+06 2.000
18 irregular 10 82 982 48 1.500000e+00 0.120 faster 0 3.560704e+06 3.560706e+06 2.304
18 irregular 10 83 983 47 1.500000e+00 0.516 faster 0 3.560708e+06 3.560710e+06 2.187
18 irregular 10 84 984 74 1 0.239 faster 1 3.560711e+06 3.560712e+06 1.710
18 irregular 10 85 985 74 1.500000e+00 0.176 slower 0 3.560713e+06 3.560715e+06 2.208
18 irregular 10 86 986 45 1 0.350 faster 0 3.560716e+06 3.560718e+06 1.948
18 irregular 10 87 987 76 2 0.392 faster 1 3.560719e+06 3.560722e+06 2.547
18 irregular 10 88 988 45 2 0.143 faster 0 3.560723e+06 3.560726e+06 2.917
18 irregular 10 89 989 76 2.500000e+00 0.588 faster 1 3.560727e+06 3.560730e+06 3.060
18 irregular 10 90 990 44 3 0.406 faster 0 3.560732e+06 3.560735e+06 3.601
18 irregular 10 91 991 77 2 0.571 slower 0 3.560736e+06 3.560739e+06 2.880
18 irregular 10 92 992 42 1.500000e+00 0.226 faster 0 3.560740e+06 3.560742e+06 2.349
18 irregular 10 93 993 79 3 0.430 faster 1 3.560744e+06 3.560748e+06 4.026
18 irregular 10 94 994 78 3 0.305 faster 1 3.560749e+06 3.560753e+06 3.934
18 irregular 10 95 995 42 2 0.253 slower 1 3.560754e+06 3.560757e+06 3.426
18 irregular 10 96 996 43 2.500000e+00 0.305 slower 1 3.560758e+06 3.560761e+06 3.357
18 irregular 10 97 997 43 2 0.327 slower 1 3.560762e+06 3.560765e+06 2.756
18 irregular 10 98 998 76 2.500000e+00 0.354 faster 1 3.560767e+06 3.560770e+06 3.253
18 irregular 10 99 999 76 1 0.344 faster 1 3.560771e+06 3.560773e+06 2.077
18 irregular 10 100 1000 45 1 0.147 slower 1 3.560774e+06 3.560776e+06 1.795
