subNo condition blockNo trialNo trialID currentFrequency cueTargetInterval randomPreCueInterval response responseAccuracy startTime responseTime RT
14 regular 1 1 1 53 1.500000e+00 0.556 faster 0 4.067083e+06 4.067086e+06 3.592
14 regular 1 2 2 69 1.500000e+00 0.133 faster 1 4.067087e+06 4.067089e+06 2.076
14 regular 1 3 3 51 1.500000e+00 0.199 faster 0 4.067090e+06 4.067092e+06 2.273
14 regular 1 4 4 49 1.500000e+00 0.187 faster 0 4.067093e+06 4.067095e+06 2.135
14 regular 1 5 5 47 1.500000e+00 0.585 slower 1 4.067097e+06 4.067099e+06 2.828
14 regular 1 6 6 71 1.500000e+00 0.129 faster 1 4.067101e+06 4.067103e+06 2.055
14 regular 1 7 7 49 1.500000e+00 0.466 faster 0 4.067104e+06 4.067107e+06 2.597
14 regular 1 8 8 73 1.500000e+00 0.529 faster 1 4.067108e+06 4.067110e+06 2.001
14 regular 1 9 9 49 1.500000e+00 0.458 slower 1 4.067111e+06 4.067113e+06 2.092
14 regular 1 10 10 71 1.500000e+00 0.190 faster 1 4.067114e+06 4.067116e+06 2.131
14 regular 1 11 11 70 1.500000e+00 0.314 faster 1 4.067117e+06 4.067119e+06 2.069
14 regular 1 12 12 50 1.500000e+00 0.299 faster 0 4.067120e+06 4.067122e+06 2.143
14 regular 1 13 13 49 1.500000e+00 0.494 slower 1 4.067123e+06 4.067125e+06 2.290
14 regular 1 14 14 50 1.500000e+00 0.600 faster 0 4.067127e+06 4.067129e+06 2.353
14 regular 1 15 15 49 1.500000e+00 0.221 faster 0 4.067130e+06 4.067132e+06 2.628
14 regular 1 16 16 72 1.500000e+00 0.489 faster 1 4.067134e+06 4.067136e+06 2.101
14 regular 1 17 17 72 1.500000e+00 0.342 faster 1 4.067137e+06 4.067139e+06 2.164
14 regular 1 18 18 71 1.500000e+00 0.416 faster 1 4.067141e+06 4.067143e+06 2.074
14 regular 1 19 19 49 1.500000e+00 0.566 slower 1 4.067144e+06 4.067147e+06 2.356
14 regular 1 20 20 50 1.500000e+00 0.595 faster 0 4.067148e+06 4.067150e+06 2.460
14 regular 1 21 21 71 1.500000e+00 0.481 faster 1 4.067151e+06 4.067154e+06 2.169
14 regular 1 22 22 71 1.500000e+00 0.219 faster 1 4.067154e+06 4.067157e+06 2.190
14 regular 1 23 23 70 1.500000e+00 0.481 faster 1 4.067158e+06 4.067160e+06 2.614
14 regular 1 24 24 50 1.500000e+00 0.368 slower 1 4.067161e+06 4.067164e+06 2.235
14 regular 1 25 25 69 1.500000e+00 0.137 faster 1 4.067164e+06 4.067167e+06 2.168
14 regular 1 26 26 69 1.500000e+00 0.121 faster 1 4.067168e+06 4.067170e+06 1.996
14 regular 1 27 27 52 1.500000e+00 0.528 faster 0 4.067171e+06 4.067173e+06 2.034
14 regular 1 28 28 69 1.500000e+00 0.310 faster 1 4.067174e+06 4.067176e+06 2.061
14 regular 1 29 29 69 1.500000e+00 0.575 faster 1 4.067177e+06 4.067179e+06 2.022
14 regular 1 30 30 68 1.500000e+00 0.204 faster 1 4.067180e+06 4.067182e+06 2.063
14 regular 1 31 31 52 1.500000e+00 0.490 slower 1 4.067183e+06 4.067186e+06 2.319
14 regular 1 32 32 53 1.500000e+00 0.494 slower 1 4.067189e+06 4.067191e+06 2.190
14 regular 1 33 33 53 1.500000e+00 0.284 faster 0 4.067193e+06 4.067195e+06 2.119
14 regular 1 34 34 68 1.500000e+00 0.168 faster 1 4.067196e+06 4.067198e+06 2.064
14 regular 1 35 35 53 1.500000e+00 0.167 faster 0 4.067199e+06 4.067201e+06 2.103
14 regular 1 36 36 68 1.500000e+00 0.286 slower 0 4.067202e+06 4.067204e+06 2.130
14 regular 1 37 37 69 1.500000e+00 0.321 faster 1 4.067205e+06 4.067208e+06 2.967
14 regular 1 38 38 69 1.500000e+00 0.111 faster 1 4.067210e+06 4.067212e+06 2.072
14 regular 1 39 39 68 1.500000e+00 0.154 faster 1 4.067212e+06 4.067215e+06 2.187
14 regular 1 40 40 52 1.500000e+00 0.177 slower 1 4.067215e+06 4.067218e+06 2.434
14 regular 1 41 41 53 1.500000e+00 0.538 faster 0 4.067219e+06 4.067221e+06 2.072
14 regular 1 42 42 52 1.500000e+00 0.205 faster 0 4.067222e+06 4.067225e+06 2.818
14 regular 1 43 43 51 1.500000e+00 0.533 slower 1 4.067226e+06 4.067228e+06 2.093
14 regular 1 44 44 69 1.500000e+00 0.305 faster 1 4.067229e+06 4.067231e+06 2.097
14 regular 1 45 45 68 1.500000e+00 0.282 faster 1 4.067232e+06 4.067235e+06 2.203
14 regular 1 46 46 68 1.500000e+00 0.210 faster 1 4.067235e+06 4.067238e+06 2.509
14 regular 1 47 47 53 1.500000e+00 0.566 faster 0 4.067239e+06 4.067241e+06 2.081
14 regular 1 48 48 52 1.500000e+00 0.134 faster 0 4.067242e+06 4.067246e+06 4.392
14 regular 1 49 49 51 1.500000e+00 0.150 slower 1 4.067248e+06 4.067250e+06 2.288
14 regular 1 50 50 51 1.500000e+00 0.279 slower 1 4.067251e+06 4.067253e+06 2.129
14 regular 1 51 51 68 1.500000e+00 0.414 faster 1 4.067255e+06 4.067257e+06 2.076
14 regular 1 52 52 52 1.500000e+00 0.266 slower 1 4.067259e+06 4.067261e+06 2.165
14 regular 1 53 53 53 1.500000e+00 0.538 slower 1 4.067262e+06 4.067264e+06 2.293
14 regular 1 54 54 67 1.500000e+00 0.374 faster 1 4.067266e+06 4.067269e+06 3.360
14 regular 1 55 55 54 1.500000e+00 0.287 faster 0 4.067271e+06 4.067274e+06 2.230
14 regular 1 56 56 67 1.500000e+00 0.139 slower 0 4.067274e+06 4.067277e+06 2.500
14 regular 1 57 57 68 1.500000e+00 0.105 faster 1 4.067278e+06 4.067280e+06 2.067
14 regular 1 58 58 52 1.500000e+00 0.400 faster 0 4.067281e+06 4.067284e+06 2.384
14 regular 1 59 59 51 1.500000e+00 0.111 faster 0 4.067285e+06 4.067287e+06 2.175
14 regular 1 60 60 70 1.500000e+00 0.455 faster 1 4.067288e+06 4.067291e+06 2.102
14 regular 1 61 61 51 1.500000e+00 0.488 faster 0 4.067292e+06 4.067294e+06 2.102
14 regular 1 62 62 70 1.500000e+00 0.346 faster 1 4.067295e+06 4.067297e+06 2.307
14 regular 1 63 63 50 1.500000e+00 0.450 slower 1 4.067299e+06 4.067301e+06 2.693
14 regular 1 64 64 69 1.500000e+00 0.484 faster 1 4.067303e+06 4.067305e+06 2.043
14 regular 1 65 65 51 1.500000e+00 0.267 slower 1 4.067306e+06 4.067309e+06 3.427
14 regular 1 66 66 68 1.500000e+00 0.480 faster 1 4.067310e+06 4.067312e+06 2.204
14 regular 1 67 67 68 1.500000e+00 0.280 faster 1 4.067313e+06 4.067316e+06 2.293
14 regular 1 68 68 53 1.500000e+00 0.481 slower 1 4.067317e+06 4.067319e+06 2.120
14 regular 1 69 69 53 1.500000e+00 0.430 faster 0 4.067320e+06 4.067322e+06 2.059
14 regular 1 70 70 52 1.500000e+00 0.491 faster 0 4.067323e+06 4.067325e+06 2.172
14 regular 1 71 71 69 1.500000e+00 0.255 faster 1 4.067326e+06 4.067330e+06 3.689
14 regular 1 72 72 68 1.500000e+00 0.541 faster 1 4.067332e+06 4.067334e+06 2.022
14 regular 1 73 73 68 1.500000e+00 0.584 faster 1 4.067335e+06 4.067337e+06 2.023
14 regular 1 74 74 53 1.500000e+00 0.422 faster 0 4.067338e+06 4.067340e+06 2.469
14 regular 1 75 75 52 1.500000e+00 0.153 faster 0 4.067341e+06 4.067344e+06 2.285
14 regular 1 76 76 51 1.500000e+00 0.428 faster 0 4.067345e+06 4.067347e+06 2.367
14 regular 1 77 77 50 1.500000e+00 0.492 slower 1 4.067348e+06 4.067350e+06 2.272
14 regular 1 78 78 70 1.500000e+00 0.527 faster 1 4.067352e+06 4.067354e+06 2.248
14 regular 1 79 79 69 1.500000e+00 0.227 faster 1 4.067355e+06 4.067357e+06 2.106
14 regular 1 80 80 69 1.500000e+00 0.343 faster 1 4.067358e+06 4.067361e+06 2.301
14 regular 1 81 81 52 1.500000e+00 0.514 slower 1 4.067362e+06 4.067365e+06 2.852
14 regular 1 82 82 52 1.500000e+00 0.539 slower 1 4.067366e+06 4.067369e+06 2.520
14 regular 1 83 83 53 1.500000e+00 0.181 slower 1 4.067371e+06 4.067373e+06 2.440
14 regular 1 84 84 67 1.500000e+00 0.240 faster 1 4.067375e+06 4.067377e+06 2.254
14 regular 1 85 85 66 1.500000e+00 0.512 slower 0 4.067379e+06 4.067381e+06 2.269
14 regular 1 86 86 67 1.500000e+00 0.173 faster 1 4.067382e+06 4.067384e+06 2.269
14 regular 1 87 87 53 1.500000e+00 0.215 slower 1 4.067385e+06 4.067387e+06 2.269
14 regular 1 88 88 54 1.500000e+00 0.130 faster 0 4.067388e+06 4.067390e+06 2.141
14 regular 1 89 89 67 1.500000e+00 0.283 faster 1 4.067391e+06 4.067393e+06 2.121
14 regular 1 90 90 53 1.500000e+00 0.532 slower 1 4.067394e+06 4.067397e+06 2.382
14 regular 1 91 91 66 1.500000e+00 0.288 slower 0 4.067398e+06 4.067400e+06 2.148
14 regular 1 92 92 67 1.500000e+00 0.580 slower 0 4.067401e+06 4.067403e+06 2.103
14 regular 1 93 93 68 1.500000e+00 0.130 slower 0 4.067404e+06 4.067406e+06 2.213
14 regular 1 94 94 51 1.500000e+00 0.169 slower 1 4.067408e+06 4.067410e+06 2.150
14 regular 1 95 95 51 1.500000e+00 0.560 faster 0 4.067411e+06 4.067414e+06 2.417
14 regular 1 96 96 70 1.500000e+00 0.526 slower 0 4.067415e+06 4.067418e+06 3.120
14 regular 1 97 97 71 1.500000e+00 0.530 faster 1 4.067419e+06 4.067422e+06 2.886
14 regular 1 98 98 70 1.500000e+00 0.573 slower 0 4.067424e+06 4.067426e+06 2.248
14 regular 1 99 99 71 1.500000e+00 0.420 faster 1 4.067428e+06 4.067430e+06 2.162
14 regular 1 100 100 49 1.500000e+00 0.148 slower 1 4.067431e+06 4.067433e+06 2.281
14 irregular 2 1 101 70 3 0.309 faster 1 4.067466e+06 4.067470e+06 3.936
14 irregular 2 2 102 50 1.500000e+00 0.425 faster 0 4.067472e+06 4.067474e+06 2.163
14 irregular 2 3 103 49 2.500000e+00 0.234 faster 0 4.067475e+06 4.067478e+06 3.275
14 irregular 2 4 104 48 2.500000e+00 0.467 faster 0 4.067479e+06 4.067482e+06 3.346
14 irregular 2 5 105 47 3 0.520 faster 0 4.067484e+06 4.067489e+06 4.518
14 irregular 2 6 106 46 1.500000e+00 0.509 faster 0 4.067490e+06 4.067492e+06 2.228
14 irregular 2 7 107 45 2 0.351 faster 0 4.067493e+06 4.067496e+06 2.741
14 irregular 2 8 108 44 3 0.162 slower 1 4.067497e+06 4.067500e+06 3.775
14 irregular 2 9 109 75 1.500000e+00 0.404 faster 1 4.067502e+06 4.067504e+06 2.175
14 irregular 2 10 110 45 1.500000e+00 0.357 faster 0 4.067505e+06 4.067507e+06 2.349
14 irregular 2 11 111 76 2 0.288 faster 1 4.067509e+06 4.067511e+06 2.632
14 irregular 2 12 112 75 2 0.503 faster 1 4.067512e+06 4.067515e+06 2.830
14 irregular 2 13 113 75 1 0.372 faster 1 4.067517e+06 4.067519e+06 1.876
14 irregular 2 14 114 74 1 0.586 faster 1 4.067520e+06 4.067522e+06 1.711
14 irregular 2 15 115 46 2.500000e+00 0.305 faster 0 4.067523e+06 4.067526e+06 3.605
14 irregular 2 16 116 45 1 0.429 slower 1 4.067527e+06 4.067529e+06 1.791
14 irregular 2 17 117 46 1.500000e+00 0.204 faster 0 4.067531e+06 4.067533e+06 2.216
14 irregular 2 18 118 75 2.500000e+00 0.511 faster 1 4.067534e+06 4.067537e+06 3.149
14 irregular 2 19 119 75 2.500000e+00 0.101 faster 1 4.067538e+06 4.067541e+06 3.096
14 irregular 2 20 120 74 2 0.111 faster 1 4.067542e+06 4.067545e+06 2.635
14 irregular 2 21 121 74 2.500000e+00 0.269 faster 1 4.067546e+06 4.067549e+06 3.137
14 irregular 2 22 122 73 2.500000e+00 0.217 faster 1 4.067552e+06 4.067555e+06 3.146
14 irregular 2 23 123 73 1.500000e+00 0.327 faster 1 4.067559e+06 4.067561e+06 2.143
14 irregular 2 24 124 48 1.500000e+00 0.475 faster 0 4.067562e+06 4.067565e+06 2.543
14 irregular 2 25 125 73 1 0.341 faster 1 4.067567e+06 4.067568e+06 1.647
14 irregular 2 26 126 73 2 0.233 faster 1 4.067571e+06 4.067574e+06 2.743
14 irregular 2 27 127 72 2 0.387 faster 1 4.067576e+06 4.067578e+06 2.657
14 irregular 2 28 128 72 2.500000e+00 0.343 faster 1 4.067580e+06 4.067584e+06 3.598
14 irregular 2 29 129 49 2.500000e+00 0.452 slower 1 4.067585e+06 4.067589e+06 3.262
14 irregular 2 30 130 71 2.500000e+00 0.236 faster 1 4.067589e+06 4.067593e+06 3.085
14 irregular 2 31 131 50 2 0.334 faster 0 4.067594e+06 4.067598e+06 4.291
14 irregular 2 32 132 49 1.500000e+00 0.264 faster 0 4.067600e+06 4.067603e+06 2.561
14 irregular 2 33 133 48 1.500000e+00 0.544 slower 1 4.067604e+06 4.067606e+06 2.191
14 irregular 2 34 134 72 3 0.439 faster 1 4.067608e+06 4.067612e+06 3.734
14 irregular 2 35 135 49 2 0.314 slower 1 4.067616e+06 4.067619e+06 2.775
14 irregular 2 36 136 71 1 0.349 faster 1 4.067620e+06 4.067622e+06 2.017
14 irregular 2 37 137 50 1.500000e+00 0.158 slower 1 4.067623e+06 4.067625e+06 2.249
14 irregular 2 38 138 70 1.500000e+00 0.516 faster 1 4.067627e+06 4.067630e+06 2.538
14 irregular 2 39 139 51 1 0.156 faster 0 4.067631e+06 4.067632e+06 1.819
14 irregular 2 40 140 50 2 0.328 slower 1 4.067633e+06 4.067636e+06 2.727
14 irregular 2 41 141 70 1.500000e+00 0.540 faster 1 4.067637e+06 4.067640e+06 2.231
14 irregular 2 42 142 51 2 0.226 faster 0 4.067640e+06 4.067643e+06 2.865
14 irregular 2 43 143 50 2 0.443 slower 1 4.067644e+06 4.067647e+06 2.760
14 irregular 2 44 144 50 2.500000e+00 0.465 slower 1 4.067648e+06 4.067651e+06 3.151
14 irregular 2 45 145 69 3 0.255 faster 1 4.067653e+06 4.067657e+06 3.733
14 irregular 2 46 146 69 3 0.463 slower 0 4.067658e+06 4.067662e+06 4.368
14 irregular 2 47 147 50 1 0.109 slower 1 4.067663e+06 4.067665e+06 2.095
14 irregular 2 48 148 69 1 0.293 slower 0 4.067666e+06 4.067668e+06 1.877
14 irregular 2 49 149 70 2 0.331 faster 1 4.067669e+06 4.067672e+06 2.785
14 irregular 2 50 150 70 2.500000e+00 0.303 faster 1 4.067673e+06 4.067676e+06 3.490
14 irregular 2 51 151 69 1 0.287 faster 1 4.067678e+06 4.067679e+06 1.695
14 irregular 2 52 152 51 1 0.240 slower 1 4.067680e+06 4.067682e+06 1.850
14 irregular 2 53 153 68 3 0.549 faster 1 4.067683e+06 4.067687e+06 3.930
14 irregular 2 54 154 68 2.500000e+00 0.346 faster 1 4.067688e+06 4.067692e+06 3.306
14 irregular 2 55 155 67 3 0.486 faster 1 4.067693e+06 4.067697e+06 4.001
14 irregular 2 56 156 53 1 0.459 slower 1 4.067698e+06 4.067700e+06 2.344
14 irregular 2 57 157 54 3 0.304 slower 1 4.067701e+06 4.067705e+06 3.788
14 irregular 2 58 158 54 1 0.425 faster 0 4.067707e+06 4.067709e+06 2.881
14 irregular 2 59 159 67 1.500000e+00 0.221 faster 1 4.067710e+06 4.067712e+06 2.156
14 irregular 2 60 160 54 2 0.484 faster 0 4.067714e+06 4.067716e+06 2.805
14 irregular 2 61 161 67 3 0.219 faster 1 4.067717e+06 4.067721e+06 3.940
14 irregular 2 62 162 67 2 0.441 faster 1 4.067722e+06 4.067726e+06 3.598
14 irregular 2 63 163 66 2.500000e+00 0.222 faster 1 4.067727e+06 4.067731e+06 3.676
14 irregular 2 64 164 54 2.500000e+00 0.506 faster 0 4.067732e+06 4.067735e+06 3.357
14 irregular 2 65 165 53 2.500000e+00 0.423 slower 1 4.067737e+06 4.067740e+06 3.471
14 irregular 2 66 166 54 2 0.257 slower 1 4.067741e+06 4.067744e+06 2.784
14 irregular 2 67 167 54 3 0.123 slower 1 4.067745e+06 4.067748e+06 3.691
14 irregular 2 68 168 55 1.500000e+00 0.283 slower 1 4.067749e+06 4.067751e+06 2.195
14 irregular 2 69 169 65 3 0.324 slower 0 4.067752e+06 4.067757e+06 4.310
14 irregular 2 70 170 66 2.500000e+00 0.142 faster 1 4.067758e+06 4.067762e+06 3.461
14 irregular 2 71 171 55 2.500000e+00 0.486 slower 1 4.067763e+06 4.067767e+06 3.539
14 irregular 2 72 172 65 1.500000e+00 0.280 slower 0 4.067767e+06 4.067770e+06 2.540
14 irregular 2 73 173 54 3 0.297 slower 1 4.067771e+06 4.067775e+06 3.830
14 irregular 2 74 174 65 1.500000e+00 0.374 slower 0 4.067776e+06 4.067779e+06 2.454
14 irregular 2 75 175 66 1 0.418 slower 0 4.067781e+06 4.067783e+06 2.193
14 irregular 2 76 176 53 3 0.402 slower 1 4.067784e+06 4.067787e+06 3.113
14 irregular 2 77 177 53 1 0.554 slower 1 4.067790e+06 4.067792e+06 1.798
14 irregular 2 78 178 66 3 0.182 slower 0 4.067793e+06 4.067797e+06 4.567
14 irregular 2 79 179 67 1.500000e+00 0.294 faster 1 4.067798e+06 4.067801e+06 2.606
14 irregular 2 80 180 67 3 0.245 slower 0 4.067802e+06 4.067806e+06 4.011
14 irregular 2 81 181 52 3 0.580 slower 1 4.067808e+06 4.067812e+06 3.930
14 irregular 2 82 182 67 1 0.237 faster 1 4.067812e+06 4.067815e+06 2.526
14 irregular 2 83 183 67 1.500000e+00 0.387 faster 1 4.067816e+06 4.067820e+06 4.432
14 irregular 2 84 184 54 1 0.195 faster 0 4.067822e+06 4.067824e+06 2.002
14 irregular 2 85 185 53 3 0.381 slower 1 4.067825e+06 4.067829e+06 4.144
14 irregular 2 86 186 53 3 0.394 slower 1 4.067831e+06 4.067834e+06 3.791
14 irregular 2 87 187 54 2.500000e+00 0.328 faster 0 4.067836e+06 4.067840e+06 4.386
14 irregular 2 88 188 53 1 0.576 slower 1 4.067842e+06 4.067844e+06 2.139
14 irregular 2 89 189 67 1.500000e+00 0.294 slower 0 4.067846e+06 4.067849e+06 3.275
14 irregular 2 90 190 68 1 0.242 faster 1 4.067851e+06 4.067853e+06 2.339
14 irregular 2 91 191 67 2 0.279 slower 0 4.067854e+06 4.067857e+06 2.941
14 irregular 2 92 192 68 2 0.524 slower 0 4.067859e+06 4.067862e+06 3.318
14 irregular 2 93 193 69 1 0.277 slower 0 4.067863e+06 4.067865e+06 1.945
14 irregular 2 94 194 50 2 0.316 slower 1 4.067866e+06 4.067870e+06 3.234
14 irregular 2 95 195 50 2.500000e+00 0.412 slower 1 4.067871e+06 4.067875e+06 3.816
14 irregular 2 96 196 51 3 0.307 slower 1 4.067876e+06 4.067880e+06 4.414
14 irregular 2 97 197 51 1 0.128 slower 1 4.067882e+06 4.067884e+06 1.976
14 irregular 2 98 198 52 2 0.475 faster 0 4.067885e+06 4.067888e+06 3.000
14 irregular 2 99 199 69 2 0.582 faster 1 4.067889e+06 4.067892e+06 2.837
14 irregular 2 100 200 51 1.500000e+00 0.244 faster 0 4.067893e+06 4.067896e+06 3.351
14 regular 3 1 201 50 2 0.216 faster 0 4.068096e+06 4.068099e+06 3.449
14 regular 3 2 202 49 2 0.449 faster 0 4.068101e+06 4.068104e+06 3.182
14 regular 3 3 203 48 2 0.529 slower 1 4.068105e+06 4.068108e+06 2.679
14 regular 3 4 204 71 2 0.258 faster 1 4.068110e+06 4.068113e+06 2.862
14 regular 3 5 205 49 2 0.179 faster 0 4.068113e+06 4.068116e+06 2.808
14 regular 3 6 206 72 2 0.553 faster 1 4.068117e+06 4.068121e+06 3.044
14 regular 3 7 207 71 2 0.103 faster 1 4.068122e+06 4.068125e+06 2.785
14 regular 3 8 208 71 2 0.595 faster 1 4.068126e+06 4.068129e+06 2.736
14 regular 3 9 209 70 2 0.189 faster 1 4.068130e+06 4.068132e+06 2.611
14 regular 3 10 210 50 2 0.187 slower 1 4.068133e+06 4.068136e+06 2.617
14 regular 3 11 211 51 2 0.590 faster 0 4.068137e+06 4.068140e+06 2.503
14 regular 3 12 212 50 2 0.282 slower 1 4.068141e+06 4.068143e+06 2.668
14 regular 3 13 213 50 2 0.460 slower 1 4.068145e+06 4.068148e+06 2.581
14 regular 3 14 214 69 2 0.568 faster 1 4.068149e+06 4.068152e+06 2.926
14 regular 3 15 215 51 2 0.216 slower 1 4.068153e+06 4.068156e+06 2.595
14 regular 3 16 216 68 2 0.154 slower 0 4.068157e+06 4.068159e+06 2.735
14 regular 3 17 217 69 2 0.234 slower 0 4.068161e+06 4.068164e+06 2.760
14 regular 3 18 218 50 2 0.182 slower 1 4.068168e+06 4.068171e+06 2.788
14 regular 3 19 219 50 2 0.162 slower 1 4.068172e+06 4.068175e+06 2.747
14 regular 3 20 220 69 2 0.137 slower 0 4.068176e+06 4.068179e+06 3.199
14 regular 3 21 221 70 2 0.457 faster 1 4.068180e+06 4.068183e+06 2.625
14 regular 3 22 222 70 2 0.288 faster 1 4.068184e+06 4.068186e+06 2.668
14 regular 3 23 223 69 2 0.128 slower 0 4.068187e+06 4.068190e+06 2.738
14 regular 3 24 224 50 2 0.497 slower 1 4.068191e+06 4.068194e+06 2.698
14 regular 3 25 225 70 2 0.465 faster 1 4.068195e+06 4.068198e+06 3.026
14 regular 3 26 226 69 2 0.134 faster 1 4.068198e+06 4.068201e+06 3.001
14 regular 3 27 227 69 2 0.519 slower 0 4.068204e+06 4.068207e+06 2.769
14 regular 3 28 228 70 2 0.521 faster 1 4.068209e+06 4.068212e+06 2.919
14 regular 3 29 229 51 2 0.442 faster 0 4.068234e+06 4.068238e+06 4.103
14 regular 3 30 230 50 2 0.594 slower 1 4.068239e+06 4.068242e+06 3.251
14 regular 3 31 231 50 2 0.209 slower 1 4.068244e+06 4.068247e+06 2.799
14 regular 3 32 232 69 2 0.435 faster 1 4.068248e+06 4.068251e+06 3.490
14 regular 3 33 233 51 2 0.507 slower 1 4.068252e+06 4.068255e+06 2.805
14 regular 3 34 234 68 2 0.140 slower 0 4.068256e+06 4.068259e+06 2.634
14 regular 3 35 235 51 2 0.504 slower 1 4.068260e+06 4.068264e+06 3.482
14 regular 3 36 236 51 2 0.288 slower 1 4.068265e+06 4.068268e+06 2.754
14 regular 3 37 237 52 2 0.453 slower 1 4.068269e+06 4.068272e+06 2.872
14 regular 3 38 238 52 2 0.335 slower 1 4.068274e+06 4.068277e+06 2.860
14 regular 3 39 239 53 2 0.343 slower 1 4.068279e+06 4.068282e+06 2.787
14 regular 3 40 240 53 2 0.599 slower 1 4.068283e+06 4.068286e+06 2.731
14 regular 3 41 241 66 2 0.409 faster 1 4.068287e+06 4.068290e+06 3.243
14 regular 3 42 242 66 2 0.140 faster 1 4.068292e+06 4.068294e+06 2.612
14 regular 3 43 243 65 2 0.116 slower 0 4.068296e+06 4.068299e+06 2.698
14 regular 3 44 244 66 2 0.213 slower 0 4.068300e+06 4.068303e+06 3.203
14 regular 3 45 245 53 2 0.474 slower 1 4.068305e+06 4.068308e+06 2.685
14 regular 3 46 246 67 2 0.355 faster 1 4.068309e+06 4.068311e+06 2.929
14 regular 3 47 247 66 2 0.303 faster 1 4.068312e+06 4.068316e+06 3.432
14 regular 3 48 248 54 2 0.463 faster 0 4.068318e+06 4.068321e+06 3.261
14 regular 3 49 249 67 2 0.505 faster 1 4.068322e+06 4.068325e+06 3.199
14 regular 3 50 250 66 2 0.194 slower 0 4.068326e+06 4.068329e+06 2.707
14 regular 3 51 251 67 2 0.530 slower 0 4.068330e+06 4.068333e+06 2.725
14 regular 3 52 252 52 2 0.549 slower 1 4.068335e+06 4.068338e+06 2.638
14 regular 3 53 253 52 2 0.149 slower 1 4.068339e+06 4.068341e+06 2.671
14 regular 3 54 254 53 2 0.322 slower 1 4.068342e+06 4.068345e+06 2.585
14 regular 3 55 255 53 2 0.230 slower 1 4.068346e+06 4.068348e+06 2.779
14 regular 3 56 256 54 2 0.406 slower 1 4.068350e+06 4.068353e+06 2.571
14 regular 3 57 257 66 2 0.543 slower 0 4.068354e+06 4.068356e+06 2.668
14 regular 3 58 258 67 2 0.374 slower 0 4.068357e+06 4.068360e+06 2.640
14 regular 3 59 259 68 2 0.125 slower 0 4.068361e+06 4.068363e+06 2.612
14 regular 3 60 260 69 2 0.307 slower 0 4.068365e+06 4.068367e+06 2.603
14 regular 3 61 261 50 2 0.451 slower 1 4.068369e+06 4.068372e+06 3.007
14 regular 3 62 262 51 2 0.394 slower 1 4.068373e+06 4.068376e+06 2.522
14 regular 3 63 263 69 2 0.230 slower 0 4.068377e+06 4.068380e+06 2.675
14 regular 3 64 264 50 2 0.461 slower 1 4.068382e+06 4.068385e+06 2.615
14 regular 3 65 265 69 2 0.329 slower 0 4.068386e+06 4.068388e+06 2.595
14 regular 3 66 266 50 2 0.519 slower 1 4.068390e+06 4.068392e+06 2.679
14 regular 3 67 267 70 2 0.433 slower 0 4.068393e+06 4.068396e+06 2.853
14 regular 3 68 268 71 2 0.444 slower 0 4.068397e+06 4.068400e+06 2.606
14 regular 3 69 269 48 2 0.472 slower 1 4.068401e+06 4.068404e+06 2.658
14 regular 3 70 270 49 2 0.107 slower 1 4.068404e+06 4.068407e+06 2.646
14 regular 3 71 271 71 2 0.468 slower 0 4.068408e+06 4.068411e+06 2.536
14 regular 3 72 272 72 2 0.455 slower 0 4.068412e+06 4.068414e+06 2.562
14 regular 3 73 273 47 2 0.237 slower 1 4.068415e+06 4.068418e+06 3.068
14 regular 3 74 274 72 2 0.528 slower 0 4.068420e+06 4.068423e+06 2.555
14 regular 3 75 275 47 2 0.399 slower 1 4.068424e+06 4.068426e+06 2.512
14 regular 3 76 276 47 2 0.539 slower 1 4.068428e+06 4.068431e+06 2.611
14 regular 3 77 277 48 2 0.123 slower 1 4.068431e+06 4.068434e+06 2.677
14 regular 3 78 278 72 2 0.435 faster 1 4.068435e+06 4.068439e+06 3.572
14 regular 3 79 279 71 2 0.279 faster 1 4.068440e+06 4.068443e+06 3.495
14 regular 3 80 280 71 2 0.191 faster 1 4.068444e+06 4.068447e+06 2.764
14 regular 3 81 281 70 2 0.138 faster 1 4.068448e+06 4.068451e+06 2.667
14 regular 3 82 282 70 2 0.334 faster 1 4.068452e+06 4.068454e+06 2.618
14 regular 3 83 283 51 2 0.157 faster 0 4.068455e+06 4.068458e+06 3.005
14 regular 3 84 284 50 2 0.196 slower 1 4.068459e+06 4.068462e+06 2.720
14 regular 3 85 285 50 2 0.357 faster 0 4.068463e+06 4.068466e+06 3.410
14 regular 3 86 286 71 2 0.289 faster 1 4.068467e+06 4.068470e+06 2.613
14 regular 3 87 287 50 2 0.535 faster 0 4.068471e+06 4.068474e+06 2.934
14 regular 3 88 288 71 2 0.565 faster 1 4.068476e+06 4.068478e+06 2.836
14 regular 3 89 289 49 2 0.556 slower 1 4.068480e+06 4.068482e+06 2.748
14 regular 3 90 290 70 2 0.286 faster 1 4.068483e+06 4.068486e+06 3.023
14 regular 3 91 291 50 2 0.232 slower 1 4.068487e+06 4.068490e+06 2.872
14 regular 3 92 292 51 2 0.499 faster 0 4.068491e+06 4.068494e+06 2.872
14 regular 3 93 293 70 2 0.575 faster 1 4.068496e+06 4.068499e+06 3.051
14 regular 3 94 294 70 2 0.169 faster 1 4.068501e+06 4.068503e+06 2.764
14 regular 3 95 295 51 2 0.122 faster 0 4.068504e+06 4.068508e+06 3.444
14 regular 3 96 296 70 2 0.101 faster 1 4.068508e+06 4.068511e+06 2.748
14 regular 3 97 297 70 2 0.514 faster 1 4.068512e+06 4.068515e+06 2.673
14 regular 3 98 298 51 2 0.367 faster 0 4.068516e+06 4.068519e+06 3.101
14 regular 3 99 299 50 2 0.244 faster 0 4.068521e+06 4.068524e+06 3.332
14 regular 3 100 300 49 2 0.248 faster 0 4.068525e+06 4.068528e+06 3.383
14 irregular 4 1 301 72 1 0.291 faster 1 4.068690e+06 4.068692e+06 1.869
14 irregular 4 2 302 72 1 0.245 faster 1 4.068694e+06 4.068695e+06 1.682
14 irregular 4 3 303 71 1.500000e+00 0.249 faster 1 4.068696e+06 4.068698e+06 2.121
14 irregular 4 4 304 49 1 0.218 slower 1 4.068701e+06 4.068703e+06 2.185
14 irregular 4 5 305 50 1.500000e+00 0.250 faster 0 4.068706e+06 4.068708e+06 2.151
14 irregular 4 6 306 49 3 0.268 slower 1 4.068709e+06 4.068712e+06 3.713
14 irregular 4 7 307 49 1.500000e+00 0.179 faster 0 4.068714e+06 4.068716e+06 2.286
14 irregular 4 8 308 72 3 0.301 faster 1 4.068718e+06 4.068722e+06 4.094
14 irregular 4 9 309 49 1 0.394 slower 1 4.068723e+06 4.068725e+06 1.778
14 irregular 4 10 310 71 2 0.286 faster 1 4.068726e+06 4.068728e+06 2.580
14 irregular 4 11 311 50 3 0.442 slower 1 4.068729e+06 4.068733e+06 3.723
14 irregular 4 12 312 70 1.500000e+00 0.220 faster 1 4.068735e+06 4.068737e+06 2.154
14 irregular 4 13 313 51 1 0.382 slower 1 4.068741e+06 4.068742e+06 1.788
14 irregular 4 14 314 51 3 0.351 faster 0 4.068744e+06 4.068748e+06 4.717
14 irregular 4 15 315 50 2.500000e+00 0.171 slower 1 4.068751e+06 4.068755e+06 3.087
14 irregular 4 16 316 69 2.500000e+00 0.501 faster 1 4.068756e+06 4.068759e+06 3.326
14 irregular 4 17 317 69 2 0.312 faster 1 4.068760e+06 4.068763e+06 2.730
14 irregular 4 18 318 68 3 0.232 faster 1 4.068765e+06 4.068769e+06 4.203
14 irregular 4 19 319 68 3 0.313 slower 0 4.068770e+06 4.068774e+06 3.789
14 irregular 4 20 320 69 2.500000e+00 0.159 faster 1 4.068775e+06 4.068778e+06 3.203
14 irregular 4 21 321 52 2 0.271 faster 0 4.068779e+06 4.068782e+06 3.245
14 irregular 4 22 322 51 2 0.444 faster 0 4.068784e+06 4.068786e+06 2.631
14 irregular 4 23 323 70 2 0.418 faster 1 4.068787e+06 4.068790e+06 2.594
14 irregular 4 24 324 50 2.500000e+00 0.572 slower 1 4.068791e+06 4.068794e+06 3.262
14 irregular 4 25 325 69 1 0.109 faster 1 4.068796e+06 4.068797e+06 1.685
14 irregular 4 26 326 69 1 0.253 faster 1 4.068798e+06 4.068800e+06 1.663
14 irregular 4 27 327 68 1 0.513 faster 1 4.068801e+06 4.068804e+06 2.681
14 irregular 4 28 328 68 1 0.261 slower 0 4.068805e+06 4.068806e+06 1.751
14 irregular 4 29 329 51 1.500000e+00 0.172 slower 1 4.068807e+06 4.068809e+06 2.172
14 irregular 4 30 330 68 1.500000e+00 0.213 slower 0 4.068810e+06 4.068812e+06 2.269
14 irregular 4 31 331 69 2.500000e+00 0.529 faster 1 4.068814e+06 4.068817e+06 3.540
14 irregular 4 32 332 51 1.500000e+00 0.223 slower 1 4.068818e+06 4.068820e+06 2.237
14 irregular 4 33 333 68 2 0.596 faster 1 4.068822e+06 4.068825e+06 2.983
14 irregular 4 34 334 68 2 0.108 slower 0 4.068825e+06 4.068828e+06 2.740
14 irregular 4 35 335 51 2 0.198 faster 0 4.068829e+06 4.068832e+06 2.676
14 irregular 4 36 336 70 2 0.154 slower 0 4.068832e+06 4.068835e+06 2.899
14 irregular 4 37 337 49 1 0.202 slower 1 4.068836e+06 4.068838e+06 1.713
14 irregular 4 38 338 50 2 0.154 slower 1 4.068840e+06 4.068843e+06 2.839
14 irregular 4 39 339 70 2.500000e+00 0.165 faster 1 4.068844e+06 4.068848e+06 3.342
14 irregular 4 40 340 51 3 0.450 faster 0 4.068849e+06 4.068853e+06 3.966
14 irregular 4 41 341 50 3 0.181 faster 0 4.068853e+06 4.068857e+06 3.778
14 irregular 4 42 342 49 1 0.400 slower 1 4.068858e+06 4.068861e+06 2.241
14 irregular 4 43 343 71 3 0.270 faster 1 4.068862e+06 4.068866e+06 4.066
14 irregular 4 44 344 50 1.500000e+00 0.445 slower 1 4.068867e+06 4.068869e+06 2.290
14 irregular 4 45 345 50 1 0.399 faster 0 4.068870e+06 4.068872e+06 2.301
14 irregular 4 46 346 49 3 0.474 slower 1 4.068874e+06 4.068877e+06 3.739
14 irregular 4 47 347 50 1.500000e+00 0.268 slower 1 4.068878e+06 4.068880e+06 2.295
14 irregular 4 48 348 70 1.500000e+00 0.288 faster 1 4.068881e+06 4.068884e+06 2.327
14 irregular 4 49 349 69 2.500000e+00 0.580 slower 0 4.068885e+06 4.068888e+06 3.236
14 irregular 4 50 350 50 1.500000e+00 0.285 slower 1 4.068889e+06 4.068891e+06 2.245
14 irregular 4 51 351 70 2 0.164 faster 1 4.068892e+06 4.068895e+06 3.018
14 irregular 4 52 352 51 1 0.335 faster 0 4.068901e+06 4.068903e+06 2.227
14 irregular 4 53 353 50 1 0.117 faster 0 4.068904e+06 4.068906e+06 1.864
14 irregular 4 54 354 49 2.500000e+00 0.324 slower 1 4.068907e+06 4.068910e+06 3.358
14 irregular 4 55 355 71 1 0.476 faster 1 4.068911e+06 4.068913e+06 1.833
14 irregular 4 56 356 70 3 0.223 faster 1 4.068914e+06 4.068918e+06 3.782
14 irregular 4 57 357 50 3 0.259 faster 0 4.068919e+06 4.068922e+06 3.794
14 irregular 4 58 358 71 3 0.200 faster 1 4.068923e+06 4.068927e+06 3.848
14 irregular 4 59 359 70 2 0.175 faster 1 4.068928e+06 4.068931e+06 2.809
14 irregular 4 60 360 50 2.500000e+00 0.371 none 2 4.068932e+06 4.068938e+06 5.499
14 irregular 4 61 361 50 2.500000e+00 0.415 slower 1 4.068939e+06 4.068942e+06 3.370
14 irregular 4 62 362 51 1.500000e+00 0.485 none 2 4.068943e+06 4.068948e+06 4.500
14 irregular 4 63 363 51 3 0.239 slower 1 4.068952e+06 4.068956e+06 3.889
14 irregular 4 64 364 51 2 0.474 faster 0 4.068958e+06 4.068962e+06 3.639
14 irregular 4 65 365 70 3 0.592 faster 1 4.068963e+06 4.068967e+06 4.074
14 irregular 4 66 366 69 1 0.537 faster 1 4.068968e+06 4.068971e+06 2.960
14 irregular 4 67 367 51 2 0.265 faster 0 4.068972e+06 4.068975e+06 2.652
14 irregular 4 68 368 70 2.500000e+00 0.492 faster 1 4.068976e+06 4.068979e+06 3.258
14 irregular 4 69 369 69 2 0.540 faster 1 4.068980e+06 4.068983e+06 2.649
14 irregular 4 70 370 51 2.500000e+00 0.203 faster 0 4.068984e+06 4.068987e+06 3.143
14 irregular 4 71 371 50 1 0.338 slower 1 4.068988e+06 4.068990e+06 1.758
14 irregular 4 72 372 51 1.500000e+00 0.312 slower 1 4.068991e+06 4.068993e+06 2.449
14 irregular 4 73 373 69 3 0.558 slower 0 4.068995e+06 4.068998e+06 3.725
14 irregular 4 74 374 70 1.500000e+00 0.344 faster 1 4.069000e+06 4.069002e+06 2.195
14 irregular 4 75 375 51 2 0.455 slower 1 4.069003e+06 4.069006e+06 2.948
14 irregular 4 76 376 51 1 0.266 slower 1 4.069007e+06 4.069009e+06 1.826
14 irregular 4 77 377 52 2.500000e+00 0.497 slower 1 4.069011e+06 4.069014e+06 3.261
14 irregular 4 78 378 52 2 0.432 slower 1 4.069015e+06 4.069018e+06 2.714
14 irregular 4 79 379 53 1.500000e+00 0.314 slower 1 4.069019e+06 4.069022e+06 2.361
14 irregular 4 80 380 67 1.500000e+00 0.474 slower 0 4.069023e+06 4.069026e+06 2.518
14 irregular 4 81 381 68 1 0.134 slower 0 4.069027e+06 4.069029e+06 2.124
14 irregular 4 82 382 51 3 0.353 slower 1 4.069030e+06 4.069034e+06 3.786
14 irregular 4 83 383 52 2.500000e+00 0.330 faster 0 4.069035e+06 4.069039e+06 3.556
14 irregular 4 84 384 69 3 0.447 faster 1 4.069041e+06 4.069044e+06 3.953
14 irregular 4 85 385 69 2.500000e+00 0.401 faster 1 4.069046e+06 4.069050e+06 3.483
14 irregular 4 86 386 68 3 0.270 faster 1 4.069051e+06 4.069055e+06 4.519
14 irregular 4 87 387 68 2.500000e+00 0.222 faster 1 4.069056e+06 4.069059e+06 3.353
14 irregular 4 88 388 53 2.500000e+00 0.105 slower 1 4.069060e+06 4.069064e+06 3.413
14 irregular 4 89 389 53 2.500000e+00 0.472 slower 1 4.069065e+06 4.069070e+06 5.361
14 irregular 4 90 390 66 2.500000e+00 0.236 slower 0 4.069071e+06 4.069074e+06 3.254
14 irregular 4 91 391 53 2 0.360 slower 1 4.069076e+06 4.069079e+06 2.733
14 irregular 4 92 392 53 2 0.196 slower 1 4.069079e+06 4.069082e+06 2.728
14 irregular 4 93 393 66 1 0.354 faster 1 4.069083e+06 4.069085e+06 1.976
14 irregular 4 94 394 54 3 0.462 slower 1 4.069087e+06 4.069091e+06 4.045
14 irregular 4 95 395 65 2.500000e+00 0.406 slower 0 4.069093e+06 4.069097e+06 4.148
14 irregular 4 96 396 66 1.500000e+00 0.275 faster 1 4.069102e+06 4.069104e+06 2.690
14 irregular 4 97 397 66 1.500000e+00 0.113 faster 1 4.069105e+06 4.069108e+06 2.765
14 irregular 4 98 398 65 1.500000e+00 0.524 faster 1 4.069110e+06 4.069113e+06 3.563
14 irregular 4 99 399 65 1.500000e+00 0.343 faster 1 4.069115e+06 4.069117e+06 2.787
14 irregular 4 100 400 64 2 0.153 faster 1 4.069119e+06 4.069122e+06 3.588
14 regular 5 1 401 64 3 0.552 faster 1 4.069144e+06 4.069149e+06 4.910
14 regular 5 2 402 57 3 0.376 faster 0 4.069150e+06 4.069155e+06 4.118
14 regular 5 3 403 56 3 0.461 faster 0 4.069156e+06 4.069160e+06 3.932
14 regular 5 4 404 65 3 0.280 faster 1 4.069164e+06 4.069168e+06 3.675
14 regular 5 5 405 55 3 0.510 faster 0 4.069169e+06 4.069173e+06 3.693
14 regular 5 6 406 66 3 0.539 faster 1 4.069174e+06 4.069177e+06 3.618
14 regular 5 7 407 55 3 0.133 faster 0 4.069178e+06 4.069182e+06 3.781
14 regular 5 8 408 66 3 0.339 faster 1 4.069183e+06 4.069187e+06 4.005
14 regular 5 9 409 66 3 0.389 faster 1 4.069188e+06 4.069192e+06 3.691
14 regular 5 10 410 55 3 0.210 slower 1 4.069193e+06 4.069197e+06 4.162
14 regular 5 11 411 65 3 0.581 faster 1 4.069199e+06 4.069203e+06 3.909
14 regular 5 12 412 64 3 0.166 faster 1 4.069204e+06 4.069208e+06 3.943
14 regular 5 13 413 64 3 0.323 faster 1 4.069209e+06 4.069213e+06 3.814
14 regular 5 14 414 57 3 0.378 faster 0 4.069214e+06 4.069217e+06 3.710
14 regular 5 15 415 64 3 0.356 faster 1 4.069218e+06 4.069222e+06 3.963
14 regular 5 16 416 56 3 0.331 faster 0 4.069223e+06 4.069227e+06 3.837
14 regular 5 17 417 65 3 0.507 faster 1 4.069231e+06 4.069235e+06 3.771
14 regular 5 18 418 64 3 0.373 faster 1 4.069236e+06 4.069240e+06 3.929
14 regular 5 19 419 56 3 0.104 faster 0 4.069241e+06 4.069245e+06 3.808
14 regular 5 20 420 55 3 0.416 faster 0 4.069246e+06 4.069249e+06 3.865
14 regular 5 21 421 66 3 0.140 faster 1 4.069250e+06 4.069255e+06 4.346
14 regular 5 22 422 65 3 0.545 faster 1 4.069256e+06 4.069260e+06 3.978
14 regular 5 23 423 65 3 0.213 slower 0 4.069261e+06 4.069265e+06 3.954
14 regular 5 24 424 54 3 0.531 slower 1 4.069271e+06 4.069275e+06 4.144
14 regular 5 25 425 65 3 0.283 faster 1 4.069276e+06 4.069280e+06 4.029
14 regular 5 26 426 55 3 0.233 faster 0 4.069281e+06 4.069285e+06 3.835
14 regular 5 27 427 66 3 0.321 faster 1 4.069286e+06 4.069290e+06 3.848
14 regular 5 28 428 65 3 0.600 faster 1 4.069291e+06 4.069295e+06 3.879
14 regular 5 29 429 65 3 0.260 slower 0 4.069299e+06 4.069303e+06 3.774
14 regular 5 30 430 54 3 0.539 faster 0 4.069305e+06 4.069309e+06 4.333
14 regular 5 31 431 53 3 0.416 slower 1 4.069311e+06 4.069314e+06 3.722
14 regular 5 32 432 66 3 0.260 slower 0 4.069315e+06 4.069320e+06 4.550
14 regular 5 33 433 53 3 0.277 slower 1 4.069321e+06 4.069325e+06 3.975
14 regular 5 34 434 53 3 0.560 faster 0 4.069326e+06 4.069330e+06 4.237
14 regular 5 35 435 68 3 0.530 slower 0 4.069332e+06 4.069336e+06 3.910
14 regular 5 36 436 51 3 0.121 slower 1 4.069337e+06 4.069340e+06 3.728
14 regular 5 37 437 68 3 0.389 faster 1 4.069341e+06 4.069345e+06 3.832
14 regular 5 38 438 52 3 0.248 slower 1 4.069346e+06 4.069350e+06 4.092
14 regular 5 39 439 67 3 0.267 faster 1 4.069351e+06 4.069355e+06 3.757
14 regular 5 40 440 67 3 0.272 faster 1 4.069356e+06 4.069360e+06 4.262
14 regular 5 41 441 54 3 0.146 faster 0 4.069361e+06 4.069365e+06 4.126
14 regular 5 42 442 67 3 0.578 faster 1 4.069367e+06 4.069371e+06 3.921
14 regular 5 43 443 67 3 0.160 faster 1 4.069379e+06 4.069383e+06 4.174
14 regular 5 44 444 54 3 0.584 faster 0 4.069385e+06 4.069389e+06 4.024
14 regular 5 45 445 67 3 0.403 faster 1 4.069391e+06 4.069395e+06 4.112
14 regular 5 46 446 53 3 0.371 faster 0 4.069396e+06 4.069400e+06 4.037
14 regular 5 47 447 68 3 0.474 faster 1 4.069401e+06 4.069405e+06 3.935
14 regular 5 48 448 53 3 0.308 slower 1 4.069406e+06 4.069410e+06 3.812
14 regular 5 49 449 67 3 0.320 faster 1 4.069412e+06 4.069417e+06 4.538
14 regular 5 50 450 54 3 0.389 slower 1 4.069418e+06 4.069422e+06 3.861
14 regular 5 51 451 54 3 0.249 faster 0 4.069423e+06 4.069427e+06 3.940
14 regular 5 52 452 53 3 0.279 faster 0 4.069430e+06 4.069434e+06 3.928
14 regular 5 53 453 52 3 0.558 slower 1 4.069437e+06 4.069441e+06 3.974
14 regular 5 54 454 53 3 0.423 slower 1 4.069443e+06 4.069448e+06 5.246
14 regular 5 55 455 53 3 0.426 faster 0 4.069453e+06 4.069457e+06 4.008
14 regular 5 56 456 52 3 0.408 faster 0 4.069458e+06 4.069462e+06 3.854
14 regular 5 57 457 51 3 0.497 slower 1 4.069463e+06 4.069468e+06 4.050
14 regular 5 58 458 52 3 0.132 slower 1 4.069469e+06 4.069473e+06 3.897
14 regular 5 59 459 52 3 0.301 slower 1 4.069474e+06 4.069478e+06 3.879
14 regular 5 60 460 67 3 0.117 faster 1 4.069479e+06 4.069484e+06 4.229
14 regular 5 61 461 53 3 0.297 slower 1 4.069484e+06 4.069489e+06 4.781
14 regular 5 62 462 54 3 0.345 slower 1 4.069491e+06 4.069495e+06 4.227
14 regular 5 63 463 54 3 0.353 slower 1 4.069496e+06 4.069500e+06 4.240
14 regular 5 64 464 65 3 0.193 faster 1 4.069501e+06 4.069505e+06 3.952
14 regular 5 65 465 65 3 0.318 faster 1 4.069507e+06 4.069511e+06 3.880
14 regular 5 66 466 64 3 0.143 faster 1 4.069511e+06 4.069515e+06 3.883
14 regular 5 67 467 56 3 0.576 faster 0 4.069518e+06 4.069522e+06 3.885
14 regular 5 68 468 65 3 0.534 faster 1 4.069523e+06 4.069527e+06 3.937
14 regular 5 69 469 56 3 0.147 faster 0 4.069528e+06 4.069532e+06 4.142
14 regular 5 70 470 55 3 0.477 slower 1 4.069533e+06 4.069537e+06 3.687
14 regular 5 71 471 55 3 0.293 slower 1 4.069540e+06 4.069544e+06 3.880
14 regular 5 72 472 64 3 0.431 faster 1 4.069545e+06 4.069549e+06 4.097
14 regular 5 73 473 56 3 0.129 slower 1 4.069550e+06 4.069554e+06 3.761
14 regular 5 74 474 63 3 0.552 slower 0 4.069555e+06 4.069559e+06 3.729
14 regular 5 75 475 64 3 0.349 slower 0 4.069560e+06 4.069564e+06 3.824
14 regular 5 76 476 65 3 0.152 slower 0 4.069564e+06 4.069568e+06 3.702
14 regular 5 77 477 66 3 0.271 slower 0 4.069569e+06 4.069574e+06 4.478
14 regular 5 78 478 67 3 0.572 slower 0 4.069576e+06 4.069580e+06 3.886
14 regular 5 79 479 68 3 0.253 faster 1 4.069584e+06 4.069588e+06 4.044
14 regular 5 80 480 52 3 0.580 slower 1 4.069590e+06 4.069595e+06 4.236
14 regular 5 81 481 53 3 0.307 slower 1 4.069596e+06 4.069600e+06 4.194
14 regular 5 82 482 67 3 0.154 slower 0 4.069601e+06 4.069605e+06 3.722
14 regular 5 83 483 68 3 0.162 faster 1 4.069606e+06 4.069610e+06 4.163
14 regular 5 84 484 53 3 0.362 slower 1 4.069611e+06 4.069616e+06 4.482
14 regular 5 85 485 67 3 0.580 slower 0 4.069617e+06 4.069621e+06 4.212
14 regular 5 86 486 68 3 0.236 slower 0 4.069622e+06 4.069626e+06 3.995
14 regular 5 87 487 69 3 0.269 slower 0 4.069627e+06 4.069632e+06 4.416
14 regular 5 88 488 50 3 0.552 slower 1 4.069633e+06 4.069637e+06 3.918
14 regular 5 89 489 51 3 0.110 slower 1 4.069638e+06 4.069642e+06 4.119
14 regular 5 90 490 69 3 0.503 slower 0 4.069644e+06 4.069648e+06 4.286
14 regular 5 91 491 70 3 0.407 faster 1 4.069652e+06 4.069656e+06 4.013
14 regular 5 92 492 51 3 0.176 slower 1 4.069657e+06 4.069661e+06 3.876
14 regular 5 93 493 51 3 0.444 slower 1 4.069662e+06 4.069667e+06 4.562
14 regular 5 94 494 52 3 0.365 slower 1 4.069669e+06 4.069673e+06 3.941
14 regular 5 95 495 52 3 0.306 slower 1 4.069674e+06 4.069678e+06 4.336
14 regular 5 96 496 53 3 0.330 faster 0 4.069679e+06 4.069683e+06 3.973
14 regular 5 97 497 68 3 0.190 slower 0 4.069686e+06 4.069690e+06 4.025
14 regular 5 98 498 69 3 0.126 slower 0 4.069691e+06 4.069696e+06 4.794
14 regular 5 99 499 50 3 0.227 slower 1 4.069697e+06 4.069701e+06 3.871
14 regular 5 100 500 70 3 0.429 faster 1 4.069703e+06 4.069707e+06 4.100
14 irregular 6 1 501 54 2 0.240 faster 0 6.461047e+02 6.489601e+02 2.855
14 irregular 6 2 502 52 3 0.146 slower 1 6.501359e+02 6.539519e+02 3.816
14 irregular 6 3 503 68 1.500000e+00 0.583 faster 1 6.567140e+02 6.589924e+02 2.278
14 irregular 6 4 504 66 3 0.529 faster 1 6.641113e+02 6.677921e+02 3.681
14 irregular 6 5 505 54 1 0.143 slower 1 6.686135e+02 6.709118e+02 2.298
14 irregular 6 6 506 56 2.500000e+00 0.355 faster 0 6.727674e+02 6.760483e+02 3.281
14 irregular 6 7 507 66 2.500000e+00 0.464 faster 1 6.785843e+02 6.820000e+02 3.416
14 irregular 6 8 508 54 2 0.147 faster 0 6.839096e+02 6.866720e+02 2.762
14 irregular 6 9 509 52 2.500000e+00 0.580 faster 0 6.879316e+02 6.911679e+02 3.236
14 irregular 6 10 510 70 2 0.475 faster 1 6.923183e+02 6.948954e+02 2.577
14 irregular 6 11 511 68 1.500000e+00 0.504 faster 1 6.960765e+02 6.982563e+02 2.180
14 irregular 6 12 512 68 1 0.275 faster 1 6.998249e+02 7.035359e+02 3.711
14 irregular 6 13 513 67 3 0.323 slower 0 7.062387e+02 7.098558e+02 3.617
14 irregular 6 14 514 68 3 0.271 slower 0 7.115049e+02 7.157595e+02 4.255
14 irregular 6 15 515 69 1 0.426 slower 0 7.172820e+02 7.200962e+02 2.814
14 irregular 6 16 516 50 1 0.522 slower 1 7.222417e+02 7.240322e+02 1.790
14 irregular 6 17 517 50 2.500000e+00 0.377 slower 1 7.250677e+02 7.288161e+02 3.748
14 irregular 6 18 518 51 1.500000e+00 0.274 slower 1 7.304433e+02 7.326880e+02 2.245
14 irregular 6 19 519 51 1.500000e+00 0.251 slower 1 7.336068e+02 7.361915e+02 2.585
14 irregular 6 20 520 52 2.500000e+00 0.400 slower 1 7.372605e+02 7.404323e+02 3.172
14 irregular 6 21 521 52 1 0.339 slower 1 7.418920e+02 7.437758e+02 1.884
14 irregular 6 22 522 53 1.500000e+00 0.511 slower 1 7.449514e+02 7.472480e+02 2.297
14 irregular 6 23 523 67 2 0.581 slower 0 7.485079e+02 7.513761e+02 2.868
14 irregular 6 24 524 68 2 0.524 faster 1 7.532215e+02 7.558240e+02 2.603
14 irregular 6 25 525 53 3 0.168 slower 1 7.573491e+02 7.610561e+02 3.707
14 irregular 6 26 526 53 3 0.146 slower 1 7.633923e+02 7.692478e+02 5.855
14 irregular 6 27 527 54 2 0.434 faster 0 7.703715e+02 7.740159e+02 3.644
14 irregular 6 28 528 67 1.500000e+00 0.267 faster 1 7.749453e+02 7.773602e+02 2.415
14 irregular 6 29 529 67 1 0.217 faster 1 7.782402e+02 7.808479e+02 2.608
14 irregular 6 30 530 66 2 0.198 slower 0 7.825184e+02 7.855993e+02 3.081
14 irregular 6 31 531 67 1.500000e+00 0.575 slower 0 7.872684e+02 7.899201e+02 2.652
14 irregular 6 32 532 52 2 0.207 slower 1 7.914899e+02 7.945122e+02 3.022
14 irregular 6 33 533 52 1 0.106 slower 1 7.960567e+02 7.981115e+02 2.055
14 irregular 6 34 534 53 2 0.146 faster 0 8.032494e+02 8.067513e+02 3.502
14 irregular 6 35 535 52 3 0.584 slower 1 8.092813e+02 8.132004e+02 3.919
14 irregular 6 36 536 68 1 0.316 faster 1 8.163771e+02 8.189436e+02 2.567
14 irregular 6 37 537 53 3 0.391 slower 1 8.204967e+02 8.258872e+02 5.391
14 irregular 6 38 538 53 1.500000e+00 0.119 faster 0 8.279510e+02 8.307677e+02 2.817
14 irregular 6 39 539 68 2.500000e+00 0.596 none 2 8.325420e+02 8.380411e+02 5.499
14 irregular 6 40 540 52 1.500000e+00 0.441 faster 0 9.196381e+02 9.220150e+02 2.377
14 irregular 6 41 541 69 2 0.161 faster 1 9.234220e+02 9.260152e+02 2.593
14 irregular 6 42 542 52 2.500000e+00 0.515 faster 0 9.271899e+02 9.303995e+02 3.210
14 irregular 6 43 543 69 1 0.300 faster 1 9.334975e+02 9.352315e+02 1.734
14 irregular 6 44 544 69 3 0.595 faster 1 9.375152e+02 9.413910e+02 3.876
14 irregular 6 45 545 52 1 0.566 faster 0 9.431813e+02 9.449750e+02 1.794
14 irregular 6 46 546 69 2.500000e+00 0.344 faster 1 9.464954e+02 9.498562e+02 3.361
14 irregular 6 47 547 69 1.500000e+00 0.585 faster 1 9.511069e+02 9.532789e+02 2.172
14 irregular 6 48 548 68 2.500000e+00 0.267 faster 1 9.542262e+02 9.575358e+02 3.310
14 irregular 6 49 549 52 1 0.241 slower 1 9.584550e+02 9.605278e+02 2.073
14 irregular 6 50 550 67 2.500000e+00 0.505 faster 1 9.623481e+02 9.656955e+02 3.347
14 irregular 6 51 551 53 1 0.219 faster 0 9.700923e+02 9.722391e+02 2.147
14 irregular 6 52 552 68 1 0.297 faster 1 9.737158e+02 9.757267e+02 2.011
14 irregular 6 53 553 53 3 0.139 slower 1 9.765476e+02 9.808472e+02 4.300
14 irregular 6 54 554 67 1 0.186 faster 1 9.831640e+02 9.852307e+02 2.067
14 irregular 6 55 555 54 1.500000e+00 0.118 faster 0 9.860322e+02 9.884629e+02 2.431
14 irregular 6 56 556 67 2.500000e+00 0.326 faster 1 9.899972e+02 9.933588e+02 3.362
14 irregular 6 57 557 53 2 0.336 slower 1 9.943691e+02 9.972314e+02 2.862
14 irregular 6 58 558 54 2 0.124 slower 1 1.003340e+03 1.006415e+03 3.075
14 irregular 6 59 559 66 1.500000e+00 0.161 faster 1 1.007655e+03 1.009855e+03 2.201
14 irregular 6 60 560 55 2.500000e+00 0.287 faster 0 1.010805e+03 1.014351e+03 3.546
14 irregular 6 61 561 66 1 0.584 faster 1 1.016591e+03 1.018591e+03 2.000
14 irregular 6 62 562 66 2.500000e+00 0.401 faster 1 1.020247e+03 1.023455e+03 3.209
14 irregular 6 63 563 65 3 0.484 faster 1 1.024612e+03 1.028687e+03 4.076
14 irregular 6 64 564 65 1.500000e+00 0.161 faster 1 1.030010e+03 1.032303e+03 2.292
14 irregular 6 65 565 64 2 0.131 faster 1 1.033126e+03 1.035744e+03 2.618
14 irregular 6 66 566 56 2 0.580 faster 0 1.036963e+03 1.039615e+03 2.652
14 irregular 6 67 567 55 2.500000e+00 0.381 slower 1 1.040675e+03 1.044255e+03 3.580
14 irregular 6 68 568 56 2.500000e+00 0.311 faster 0 1.045207e+03 1.048512e+03 3.304
14 irregular 6 69 569 55 1.500000e+00 0.146 faster 0 1.049346e+03 1.051743e+03 2.397
14 irregular 6 70 570 66 3 0.525 slower 0 1.052948e+03 1.056735e+03 3.787
14 irregular 6 71 571 67 2 0.239 faster 1 1.058619e+03 1.061583e+03 2.963
14 irregular 6 72 572 67 2 0.576 faster 1 1.062799e+03 1.065567e+03 2.769
14 irregular 6 73 573 66 3 0.117 faster 1 1.066361e+03 1.070127e+03 3.766
14 irregular 6 74 574 54 1.500000e+00 0.533 slower 1 1.072485e+03 1.074687e+03 2.202
14 irregular 6 75 575 65 1 0.517 slower 0 1.075881e+03 1.077743e+03 1.862
14 irregular 6 76 576 66 1.500000e+00 0.263 slower 0 1.078672e+03 1.080895e+03 2.223
14 irregular 6 77 577 67 1 0.209 slower 0 1.081776e+03 1.084494e+03 2.718
14 irregular 6 78 578 52 1 0.526 slower 1 1.086085e+03 1.088495e+03 2.411
14 irregular 6 79 579 68 1.500000e+00 0.318 faster 1 1.090000e+03 1.092351e+03 2.350
14 irregular 6 80 580 67 3 0.217 faster 1 1.093766e+03 1.097567e+03 3.801
14 irregular 6 81 581 53 2 0.389 slower 1 1.099080e+03 1.101919e+03 2.839
14 irregular 6 82 582 66 2.500000e+00 0.292 faster 1 1.102881e+03 1.106031e+03 3.149
14 irregular 6 83 583 66 1.500000e+00 0.600 faster 1 1.107301e+03 1.109711e+03 2.410
14 irregular 6 84 584 55 1.500000e+00 0.227 slower 1 1.110581e+03 1.113279e+03 2.699
14 irregular 6 85 585 65 2.500000e+00 0.439 faster 1 1.114960e+03 1.119311e+03 4.351
14 irregular 6 86 586 56 2 0.358 slower 1 1.120344e+03 1.124126e+03 3.783
14 irregular 6 87 587 64 2 0.573 faster 1 1.125337e+03 1.128223e+03 2.886
14 irregular 6 88 588 63 2 0.202 faster 1 1.129066e+03 1.132495e+03 3.428
14 irregular 6 89 589 57 3 0.450 slower 1 1.133607e+03 1.137375e+03 3.769
14 irregular 6 90 590 62 3 0.326 slower 0 1.139950e+03 1.143631e+03 3.681
14 irregular 6 91 591 57 2.500000e+00 0.368 slower 1 1.145635e+03 1.149343e+03 3.708
14 irregular 6 92 592 57 2.500000e+00 0.258 slower 1 1.150887e+03 1.154223e+03 3.337
14 irregular 6 93 593 58 3 0.204 slower 1 1.156359e+03 1.160191e+03 3.832
14 irregular 6 94 594 58 1 0.209 slower 1 1.162199e+03 1.164015e+03 1.816
14 irregular 6 95 595 59 1.500000e+00 0.471 slower 1 1.165154e+03 1.167567e+03 2.413
14 irregular 6 96 596 61 3 0.150 faster 1 1.168381e+03 1.172335e+03 3.954
14 irregular 6 97 597 61 2.500000e+00 0.262 slower 0 1.173273e+03 1.176447e+03 3.174
14 irregular 6 98 598 58 1 0.321 slower 1 1.177429e+03 1.179678e+03 2.250
14 irregular 6 99 599 58 3 0.271 slower 1 1.180624e+03 1.184414e+03 3.790
14 irregular 6 100 600 59 3 0.442 faster 0 1.185488e+03 1.189519e+03 4.031
14 regular 7 1 601 62 1 0.413 faster 1 1.225375e+03 1.227535e+03 2.159
14 regular 7 2 602 58 1 0.474 faster 0 1.229163e+03 1.231358e+03 2.195
14 regular 7 3 603 63 1 0.553 faster 1 1.232550e+03 1.234302e+03 1.753
14 regular 7 4 604 58 1 0.586 slower 1 1.236258e+03 1.238047e+03 1.788
14 regular 7 5 605 62 1 0.373 slower 0 1.239678e+03 1.241503e+03 1.825
14 regular 7 6 606 57 1 0.384 slower 1 1.243255e+03 1.245999e+03 2.744
14 regular 7 7 607 62 1 0.139 slower 0 1.247336e+03 1.248975e+03 1.639
14 regular 7 8 608 63 1 0.373 slower 0 1.249985e+03 1.251630e+03 1.646
14 regular 7 9 609 56 1 0.568 faster 0 1.252837e+03 1.254510e+03 1.673
14 regular 7 10 610 65 1 0.338 faster 1 1.255491e+03 1.257038e+03 1.547
14 regular 7 11 611 65 1 0.245 faster 1 1.257919e+03 1.259487e+03 1.568
14 regular 7 12 612 64 1 0.143 faster 1 1.260262e+03 1.261966e+03 1.704
14 regular 7 13 613 64 1 0.477 slower 0 1.263082e+03 1.264911e+03 1.828
14 regular 7 14 614 65 1 0.268 faster 1 1.266417e+03 1.268238e+03 1.821
14 regular 7 15 615 64 1 0.436 slower 0 1.269317e+03 1.271151e+03 1.834
14 regular 7 16 616 65 1 0.272 faster 1 1.272059e+03 1.273918e+03 1.859
14 regular 7 17 617 65 1 0.172 faster 1 1.274737e+03 1.276383e+03 1.646
14 regular 7 18 618 56 1 0.251 faster 0 1.277269e+03 1.279214e+03 1.945
14 regular 7 19 619 55 1 0.108 slower 1 1.279952e+03 1.281791e+03 1.839
14 regular 7 20 620 65 1 0.335 faster 1 1.291191e+03 1.293166e+03 1.975
14 regular 7 21 621 56 1 0.296 slower 1 1.294130e+03 1.296223e+03 2.093
14 regular 7 22 622 64 1 0.402 slower 0 1.298417e+03 1.300414e+03 1.998
14 regular 7 23 623 55 1 0.363 faster 0 1.301841e+03 1.303711e+03 1.870
14 regular 7 24 624 54 1 0.302 faster 0 1.304656e+03 1.306590e+03 1.934
14 regular 7 25 625 67 1 0.119 slower 0 1.307354e+03 1.309230e+03 1.876
14 regular 7 26 626 52 1 0.156 slower 1 1.310024e+03 1.311775e+03 1.751
14 regular 7 27 627 53 1 0.292 slower 1 1.312712e+03 1.314350e+03 1.638
14 regular 7 28 628 53 1 0.274 slower 1 1.315258e+03 1.317503e+03 2.245
14 regular 7 29 629 54 1 0.496 slower 1 1.318628e+03 1.320318e+03 1.691
14 regular 7 30 630 54 1 0.321 slower 1 1.321272e+03 1.322911e+03 1.639
14 regular 7 31 631 55 1 0.246 slower 1 1.323792e+03 1.326206e+03 2.414
14 regular 7 32 632 55 1 0.512 slower 1 1.334136e+03 1.336270e+03 2.134
14 regular 7 33 633 64 1 0.448 slower 0 1.337725e+03 1.339422e+03 1.697
14 regular 7 34 634 55 1 0.126 slower 1 1.340188e+03 1.342094e+03 1.907
14 regular 7 35 635 65 1 0.533 slower 0 1.343258e+03 1.345006e+03 1.748
14 regular 7 36 636 66 1 0.466 slower 0 1.346108e+03 1.347790e+03 1.683
14 regular 7 37 637 53 1 0.480 slower 1 1.348913e+03 1.350686e+03 1.773
14 regular 7 38 638 54 1 0.369 slower 1 1.351700e+03 1.354190e+03 2.490
14 regular 7 39 639 54 1 0.426 slower 1 1.355246e+03 1.356927e+03 1.681
14 regular 7 40 640 65 1 0.496 slower 0 1.358065e+03 1.359758e+03 1.693
14 regular 7 41 641 66 1 0.562 slower 0 1.360963e+03 1.362606e+03 1.642
14 regular 7 42 642 53 1 0.553 slower 1 1.364562e+03 1.366462e+03 1.900
14 regular 7 43 643 67 1 0.514 slower 0 1.368371e+03 1.370270e+03 1.899
14 regular 7 44 644 52 1 0.589 slower 1 1.372534e+03 1.374222e+03 1.688
14 regular 7 45 645 67 1 0.447 slower 0 1.376626e+03 1.378510e+03 1.884
14 regular 7 46 646 52 1 0.582 slower 1 1.379729e+03 1.381422e+03 1.693
14 regular 7 47 647 52 1 0.459 slower 1 1.382523e+03 1.384223e+03 1.700
14 regular 7 48 648 53 1 0.501 slower 1 1.385360e+03 1.387086e+03 1.725
14 regular 7 49 649 67 1 0.416 faster 1 1.388142e+03 1.389886e+03 1.744
14 regular 7 50 650 66 1 0.273 slower 0 1.390800e+03 1.392510e+03 1.711
14 regular 7 51 651 53 1 0.346 slower 1 1.394408e+03 1.396222e+03 1.813
14 regular 7 52 652 53 1 0.180 slower 1 1.397035e+03 1.398894e+03 1.859
14 regular 7 53 653 54 1 0.329 slower 1 1.400420e+03 1.402654e+03 2.234
14 regular 7 54 654 66 1 0.187 faster 1 1.403928e+03 1.405711e+03 1.782
14 regular 7 55 655 55 1 0.287 slower 1 1.407152e+03 1.408830e+03 1.678
14 regular 7 56 656 65 1 0.293 slower 0 1.409764e+03 1.411679e+03 1.915
14 regular 7 57 657 54 1 0.406 slower 1 1.412726e+03 1.414558e+03 1.832
14 regular 7 58 658 55 1 0.102 slower 1 1.415302e+03 1.417038e+03 1.736
14 regular 7 59 659 65 1 0.382 slower 0 1.418066e+03 1.419983e+03 1.916
14 regular 7 60 660 54 1 0.276 slower 1 1.420895e+03 1.422638e+03 1.744
14 regular 7 61 661 65 1 0.446 slower 0 1.423726e+03 1.425614e+03 1.888
14 regular 7 62 662 66 1 0.235 slower 0 1.426482e+03 1.428366e+03 1.884
14 regular 7 63 663 53 1 0.238 slower 1 1.429233e+03 1.431102e+03 1.869
14 regular 7 64 664 53 1 0.383 slower 1 1.432131e+03 1.433902e+03 1.771
14 regular 7 65 665 54 1 0.521 slower 1 1.437465e+03 1.439214e+03 1.749
14 regular 7 66 666 54 1 0.487 slower 1 1.440344e+03 1.442094e+03 1.750
14 regular 7 67 667 65 1 0.364 slower 0 1.443093e+03 1.444766e+03 1.673
14 regular 7 68 668 66 1 0.498 slower 0 1.445904e+03 1.447566e+03 1.662
14 regular 7 69 669 53 1 0.521 slower 1 1.449325e+03 1.450958e+03 1.633
14 regular 7 70 670 67 1 0.598 slower 0 1.452186e+03 1.453838e+03 1.652
14 regular 7 71 671 68 1 0.368 slower 0 1.454842e+03 1.456527e+03 1.685
14 regular 7 72 672 69 1 0.418 faster 1 1.457591e+03 1.459326e+03 1.734
14 regular 7 73 673 68 1 0.541 faster 1 1.460509e+03 1.462110e+03 1.601
14 regular 7 74 674 68 1 0.118 faster 1 1.462869e+03 1.464542e+03 1.673
14 regular 7 75 675 67 1 0.438 faster 1 1.466489e+03 1.468222e+03 1.733
14 regular 7 76 676 67 1 0.129 faster 1 1.468997e+03 1.470782e+03 1.785
14 regular 7 77 677 66 1 0.143 faster 1 1.472169e+03 1.473870e+03 1.701
14 regular 7 78 678 66 1 0.177 faster 1 1.475814e+03 1.478318e+03 2.504
14 regular 7 79 679 55 1 0.495 slower 1 1.479465e+03 1.481374e+03 1.909
14 regular 7 80 680 55 1 0.575 slower 1 1.482592e+03 1.484351e+03 1.759
14 regular 7 81 681 56 1 0.349 slower 1 1.485974e+03 1.487758e+03 1.784
14 regular 7 82 682 56 1 0.230 slower 1 1.488628e+03 1.490446e+03 1.818
14 regular 7 83 683 63 1 0.596 slower 0 1.491671e+03 1.493646e+03 1.975
14 regular 7 84 684 64 1 0.102 slower 0 1.494396e+03 1.496222e+03 1.825
14 regular 7 85 685 65 1 0.340 slower 0 1.497195e+03 1.498878e+03 1.683
14 regular 7 86 686 54 1 0.436 slower 1 1.499960e+03 1.501790e+03 1.830
14 regular 7 87 687 54 1 0.296 slower 1 1.502716e+03 1.504430e+03 1.714
14 regular 7 88 688 55 1 0.210 faster 0 1.505290e+03 1.507230e+03 1.940
14 regular 7 89 689 66 1 0.418 faster 1 1.508297e+03 1.510030e+03 1.733
14 regular 7 90 690 66 1 0.430 slower 0 1.511098e+03 1.512974e+03 1.876
14 regular 7 91 691 53 1 0.408 slower 1 1.514031e+03 1.515837e+03 1.807
14 regular 7 92 692 66 1 0.132 slower 0 1.516605e+03 1.518334e+03 1.729
14 regular 7 93 693 67 1 0.496 slower 0 1.519462e+03 1.521710e+03 2.248
14 regular 7 94 694 68 1 0.389 slower 0 1.522737e+03 1.524766e+03 2.029
14 regular 7 95 695 51 1 0.168 slower 1 1.525565e+03 1.527406e+03 1.841
14 regular 7 96 696 51 1 0.597 slower 1 1.528643e+03 1.530590e+03 1.947
14 regular 7 97 697 68 1 0.190 slower 0 1.531662e+03 1.533934e+03 2.272
14 regular 7 98 698 51 1 0.524 slower 1 1.535604e+03 1.537358e+03 1.753
14 regular 7 99 699 51 1 0.485 slower 1 1.538484e+03 1.540319e+03 1.835
14 regular 7 100 700 52 1 0.248 slower 1 1.541213e+03 1.543134e+03 1.922
14 irregular 8 1 701 68 2.500000e+00 0.379 faster 1 2.323834e+03 2.327228e+03 3.393
14 irregular 8 2 702 67 3 0.384 faster 1 2.328941e+03 2.332540e+03 3.598
14 irregular 8 3 703 67 2.500000e+00 0.586 slower 0 2.334288e+03 2.339260e+03 4.972
14 irregular 8 4 704 52 2 0.165 faster 0 2.340467e+03 2.343100e+03 2.633
14 irregular 8 5 705 69 1.500000e+00 0.120 faster 1 2.343904e+03 2.346028e+03 2.124
14 irregular 8 6 706 68 3 0.174 faster 1 2.346863e+03 2.350668e+03 3.805
14 irregular 8 7 707 68 1.500000e+00 0.250 faster 1 2.351589e+03 2.353980e+03 2.391
14 irregular 8 8 708 67 2.500000e+00 0.391 faster 1 2.355045e+03 2.358619e+03 3.574
14 irregular 8 9 709 67 2 0.574 faster 1 2.359857e+03 2.362572e+03 2.714
14 irregular 8 10 710 66 1 0.322 faster 1 2.363559e+03 2.365388e+03 1.829
14 irregular 8 11 711 66 1.500000e+00 0.516 faster 1 2.367113e+03 2.369132e+03 2.019
14 irregular 8 12 712 55 2 0.238 slower 1 2.370052e+03 2.372780e+03 2.728
14 irregular 8 13 713 55 1 0.533 faster 0 2.373989e+03 2.375739e+03 1.751
14 irregular 8 14 714 66 1.500000e+00 0.434 faster 1 2.376848e+03 2.379291e+03 2.443
14 irregular 8 15 715 55 2.500000e+00 0.291 slower 1 2.380379e+03 2.383628e+03 3.250
14 irregular 8 16 716 65 2.500000e+00 0.220 faster 1 2.384483e+03 2.387532e+03 3.049
14 irregular 8 17 717 56 1.500000e+00 0.206 faster 0 2.388428e+03 2.390828e+03 2.400
14 irregular 8 18 718 65 2 0.275 slower 0 2.391783e+03 2.394492e+03 2.709
14 irregular 8 19 719 54 3 0.519 slower 1 2.395677e+03 2.399516e+03 3.839
14 irregular 8 20 720 66 2.500000e+00 0.290 slower 0 2.401026e+03 2.404956e+03 3.930
14 irregular 8 21 721 67 3 0.101 slower 0 2.405735e+03 2.409452e+03 3.717
14 irregular 8 22 722 52 2.500000e+00 0.565 slower 1 2.410684e+03 2.413788e+03 3.104
14 irregular 8 23 723 53 1 0.370 slower 1 2.414823e+03 2.416604e+03 1.781
14 irregular 8 24 724 53 1 0.347 slower 1 2.417581e+03 2.419451e+03 1.870
14 irregular 8 25 725 54 3 0.321 slower 1 2.420437e+03 2.424364e+03 3.927
14 irregular 8 26 726 66 2.500000e+00 0.229 slower 0 2.425741e+03 2.428843e+03 3.102
14 irregular 8 27 727 53 1.500000e+00 0.383 slower 1 2.429895e+03 2.432284e+03 2.389
14 irregular 8 28 728 66 2.500000e+00 0.528 faster 1 2.434980e+03 2.438460e+03 3.480
14 irregular 8 29 729 54 3 0.465 faster 0 2.440075e+03 2.444252e+03 4.177
14 irregular 8 30 730 67 2 0.378 faster 1 2.445993e+03 2.448571e+03 2.578
14 irregular 8 31 731 54 1.500000e+00 0.244 faster 0 2.449494e+03 2.451693e+03 2.199
14 irregular 8 32 732 53 1 0.102 faster 0 2.452473e+03 2.454140e+03 1.667
14 irregular 8 33 733 68 2 0.465 slower 0 2.455314e+03 2.458012e+03 2.698
14 irregular 8 34 734 69 1 0.351 faster 1 2.459038e+03 2.461036e+03 1.997
14 irregular 8 35 735 51 1 0.346 faster 0 2.462581e+03 2.464428e+03 1.847
14 irregular 8 36 736 50 3 0.272 slower 1 2.465849e+03 2.469516e+03 3.666
14 irregular 8 37 737 69 3 0.357 faster 1 2.470509e+03 2.474204e+03 3.695
14 irregular 8 38 738 69 2.500000e+00 0.141 faster 1 2.475038e+03 2.478267e+03 3.229
14 irregular 8 39 739 68 2 0.130 faster 1 2.479055e+03 2.481867e+03 2.813
14 irregular 8 40 740 68 1 0.164 faster 1 2.483441e+03 2.485243e+03 1.802
14 irregular 8 41 741 53 2.500000e+00 0.325 slower 1 2.487133e+03 2.490491e+03 3.358
14 irregular 8 42 742 67 1.500000e+00 0.176 slower 0 2.491818e+03 2.494123e+03 2.305
14 irregular 8 43 743 52 3 0.535 slower 1 2.495817e+03 2.499563e+03 3.747
14 irregular 8 44 744 53 2.500000e+00 0.471 faster 0 2.501648e+03 2.505452e+03 3.804
14 irregular 8 45 745 52 2 0.426 faster 0 2.506546e+03 2.509420e+03 2.874
14 irregular 8 46 746 69 2 0.338 faster 1 2.510881e+03 2.513707e+03 2.826
14 irregular 8 47 747 51 1.500000e+00 0.481 slower 1 2.514861e+03 2.517003e+03 2.142
14 irregular 8 48 748 68 1 0.378 faster 1 2.518837e+03 2.520684e+03 1.847
14 irregular 8 49 749 68 1 0.388 faster 1 2.521708e+03 2.523420e+03 1.712
14 irregular 8 50 750 53 1 0.252 faster 0 2.524325e+03 2.526059e+03 1.734
14 irregular 8 51 751 68 1 0.549 faster 1 2.527952e+03 2.529996e+03 2.044
14 irregular 8 52 752 68 1.500000e+00 0.162 slower 0 2.531479e+03 2.533788e+03 2.309
14 irregular 8 53 753 51 2 0.572 slower 1 2.535030e+03 2.537788e+03 2.758
14 irregular 8 54 754 68 2.500000e+00 0.500 faster 1 2.538960e+03 2.542283e+03 3.323
14 irregular 8 55 755 52 3 0.555 slower 1 2.543747e+03 2.547804e+03 4.056
14 irregular 8 56 756 67 2 0.351 faster 1 2.549751e+03 2.552411e+03 2.661
14 irregular 8 57 757 53 3 0.575 faster 0 2.553660e+03 2.557804e+03 4.144
14 irregular 8 58 758 52 2.500000e+00 0.471 slower 1 2.558945e+03 2.562203e+03 3.258
14 irregular 8 59 759 53 1.500000e+00 0.287 faster 0 2.563159e+03 2.565436e+03 2.277
14 irregular 8 60 760 68 1.500000e+00 0.154 slower 0 2.566222e+03 2.568508e+03 2.286
14 irregular 8 61 761 69 2 0.111 faster 1 2.569291e+03 2.572140e+03 2.848
14 irregular 8 62 762 51 2 0.457 faster 0 2.573238e+03 2.576731e+03 3.494
14 irregular 8 63 763 50 3 0.230 slower 1 2.577628e+03 2.581740e+03 4.112
14 irregular 8 64 764 51 1 0.283 faster 0 2.584168e+03 2.586172e+03 2.004
14 irregular 8 65 765 50 2 0.468 slower 1 2.591173e+03 2.595035e+03 3.863
14 irregular 8 66 766 50 2.500000e+00 0.333 slower 1 2.596652e+03 2.599867e+03 3.215
14 irregular 8 67 767 51 2.500000e+00 0.244 slower 1 2.601255e+03 2.604652e+03 3.397
14 irregular 8 68 768 69 3 0.458 faster 1 2.605788e+03 2.609628e+03 3.839
14 irregular 8 69 769 52 2.500000e+00 0.360 faster 0 2.611217e+03 2.614763e+03 3.546
14 irregular 8 70 770 51 1.500000e+00 0.264 faster 0 2.615704e+03 2.617915e+03 2.211
14 irregular 8 71 771 70 2 0.229 faster 1 2.619267e+03 2.622076e+03 2.809
14 irregular 8 72 772 70 1 0.193 faster 1 2.622941e+03 2.624604e+03 1.662
14 irregular 8 73 773 51 1 0.261 slower 1 2.625503e+03 2.627307e+03 1.804
14 irregular 8 74 774 69 1 0.237 faster 1 2.628683e+03 2.630315e+03 1.632
14 irregular 8 75 775 52 1.500000e+00 0.587 faster 0 2.631563e+03 2.633724e+03 2.160
14 irregular 8 76 776 51 2 0.356 none 2 2.634756e+03 2.639756e+03 5.000
14 irregular 8 77 777 69 1 0.282 faster 1 2.642634e+03 2.644603e+03 1.969
14 irregular 8 78 778 69 1.500000e+00 0.237 faster 1 2.645510e+03 2.647915e+03 2.405
14 irregular 8 79 779 68 2.500000e+00 0.305 faster 1 2.648896e+03 2.652061e+03 3.164
14 irregular 8 80 780 52 1.500000e+00 0.358 faster 0 2.655559e+03 2.657899e+03 2.340
14 irregular 8 81 781 69 2 0.440 faster 1 2.659472e+03 2.662747e+03 3.275
14 irregular 8 82 782 52 3 0.148 slower 1 2.664045e+03 2.667867e+03 3.823
14 irregular 8 83 783 52 2.500000e+00 0.411 slower 1 2.668956e+03 2.672219e+03 3.264
14 irregular 8 84 784 67 1.500000e+00 0.240 slower 0 2.673121e+03 2.675195e+03 2.074
14 irregular 8 85 785 68 3 0.209 faster 1 2.676075e+03 2.680203e+03 4.128
14 irregular 8 86 786 68 3 0.462 slower 0 2.681311e+03 2.685947e+03 4.636
14 irregular 8 87 787 69 3 0.482 faster 1 2.688018e+03 2.691963e+03 3.946
14 irregular 8 88 788 52 1 0.251 slower 1 2.692878e+03 2.695628e+03 2.749
14 irregular 8 89 789 52 2 0.191 slower 1 2.696483e+03 2.699180e+03 2.696
14 irregular 8 90 790 53 2.500000e+00 0.468 slower 1 2.700769e+03 2.704124e+03 3.355
14 irregular 8 91 791 53 1.500000e+00 0.275 slower 1 2.705064e+03 2.707211e+03 2.147
14 irregular 8 92 792 54 1 0.365 slower 1 2.708251e+03 2.709947e+03 1.696
14 irregular 8 93 793 54 1.500000e+00 0.410 slower 1 2.711036e+03 2.713564e+03 2.528
14 irregular 8 94 794 65 3 0.105 faster 1 2.714358e+03 2.718571e+03 4.213
14 irregular 8 95 795 65 1 0.571 slower 0 2.719808e+03 2.723115e+03 3.307
14 irregular 8 96 796 66 3 0.478 faster 1 2.724998e+03 2.728875e+03 3.877
14 irregular 8 97 797 65 1.500000e+00 0.264 faster 1 2.730950e+03 2.733419e+03 2.469
14 irregular 8 98 798 55 2 0.442 faster 0 2.740039e+03 2.743451e+03 3.411
14 irregular 8 99 799 54 3 0.572 slower 1 2.744703e+03 2.748635e+03 3.932
14 irregular 8 100 800 55 2 0.417 faster 0 2.751020e+03 2.754507e+03 3.488
14 regular 9 1 801 68 2.500000e+00 0.580 faster 1 9.664361e+04 9.664671e+04 3.104
14 regular 9 2 802 68 2.500000e+00 0.475 faster 1 9.664783e+04 9.665105e+04 3.218
14 regular 9 3 803 66 2.500000e+00 0.504 faster 1 9.665226e+04 9.665527e+04 3.015
14 regular 9 4 804 66 2.500000e+00 0.275 faster 1 9.665619e+04 9.665929e+04 3.099
14 regular 9 5 805 64 2.500000e+00 0.323 faster 1 9.666072e+04 9.666380e+04 3.080
14 regular 9 6 806 64 2.500000e+00 0.271 faster 1 9.666531e+04 9.666846e+04 3.146
14 regular 9 7 807 58 2.500000e+00 0.426 slower 1 9.667024e+04 9.667390e+04 3.662
14 regular 9 8 808 58 2.500000e+00 0.522 faster 0 9.667550e+04 9.667895e+04 3.457
14 regular 9 9 809 64 2.500000e+00 0.377 slower 0 9.668037e+04 9.668346e+04 3.095
14 regular 9 10 810 54 2.500000e+00 0.274 slower 1 9.668488e+04 9.668827e+04 3.382
14 regular 9 11 811 64 2.500000e+00 0.251 faster 1 9.668915e+04 9.669282e+04 3.670
14 regular 9 12 812 64 2.500000e+00 0.400 faster 1 9.669387e+04 9.669730e+04 3.435
14 regular 9 13 813 62 2.500000e+00 0.339 faster 1 9.669827e+04 9.670164e+04 3.369
14 regular 9 14 814 58 2.500000e+00 0.511 slower 1 9.670514e+04 9.670847e+04 3.337
14 regular 9 15 815 61 2.500000e+00 0.581 faster 1 9.671735e+04 9.672063e+04 3.282
14 regular 9 16 816 59 2.500000e+00 0.524 faster 0 9.672266e+04 9.672578e+04 3.128
14 regular 9 17 817 57 2.500000e+00 0.168 faster 0 9.672659e+04 9.673060e+04 4.009
14 regular 9 18 818 65 2.500000e+00 0.146 faster 1 9.673139e+04 9.673457e+04 3.179
14 regular 9 19 819 57 2.500000e+00 0.434 faster 0 9.673564e+04 9.673903e+04 3.390
14 regular 9 20 820 56 2.500000e+00 0.267 slower 1 9.674040e+04 9.674379e+04 3.382
14 regular 9 21 821 64 2.500000e+00 0.217 faster 1 9.674511e+04 9.674860e+04 3.492
14 regular 9 22 822 63 2.500000e+00 0.198 faster 1 9.674943e+04 9.675302e+04 3.585
14 regular 9 23 823 63 2.500000e+00 0.575 faster 1 9.675423e+04 9.675750e+04 3.271
14 regular 9 24 824 58 2.500000e+00 0.207 faster 0 9.675834e+04 9.676185e+04 3.504
14 regular 9 25 825 57 2.500000e+00 0.106 faster 0 9.676453e+04 9.676854e+04 4.004
14 regular 9 26 826 56 2.500000e+00 0.146 slower 1 9.676936e+04 9.677380e+04 4.438
14 regular 9 27 827 64 2.500000e+00 0.584 slower 0 9.678644e+04 9.678994e+04 3.508
14 regular 9 28 828 55 2.500000e+00 0.316 faster 0 9.679139e+04 9.679538e+04 3.994
14 regular 9 29 829 66 2.500000e+00 0.391 slower 0 9.679687e+04 9.680001e+04 3.136
14 regular 9 30 830 53 2.500000e+00 0.119 slower 1 9.680194e+04 9.680515e+04 3.204
14 regular 9 31 831 54 2.500000e+00 0.596 slower 1 9.680699e+04 9.681020e+04 3.215
14 regular 9 32 832 54 2.500000e+00 0.441 faster 0 9.681429e+04 9.681788e+04 3.592
14 regular 9 33 833 53 2.500000e+00 0.161 faster 0 9.681921e+04 9.682246e+04 3.243
14 regular 9 34 834 68 2.500000e+00 0.515 faster 1 9.682412e+04 9.682814e+04 4.015
14 regular 9 35 835 53 2.500000e+00 0.300 none 2 9.682952e+04 9.683502e+04 5.499
14 regular 9 36 836 67 2.500000e+00 0.595 faster 1 9.683695e+04 9.684007e+04 3.127
14 regular 9 37 837 67 2.500000e+00 0.566 faster 1 9.684127e+04 9.684436e+04 3.092
14 regular 9 38 838 66 2.500000e+00 0.344 faster 1 9.684535e+04 9.684846e+04 3.106
14 regular 9 39 839 54 2.500000e+00 0.585 faster 0 9.684969e+04 9.685287e+04 3.185
14 regular 9 40 840 67 2.500000e+00 0.267 faster 1 9.685378e+04 9.685695e+04 3.171
14 regular 9 41 841 54 2.500000e+00 0.241 faster 0 9.685832e+04 9.686172e+04 3.399
14 regular 9 42 842 67 2.500000e+00 0.505 faster 1 9.686331e+04 9.686706e+04 3.757
14 regular 9 43 843 67 2.500000e+00 0.219 faster 1 9.686791e+04 9.687135e+04 3.439
14 regular 9 44 844 54 2.500000e+00 0.297 slower 1 9.687229e+04 9.687692e+04 4.630
14 regular 9 45 845 54 2.500000e+00 0.139 slower 1 9.687869e+04 9.688228e+04 3.587
14 regular 9 46 846 55 2.500000e+00 0.186 slower 1 9.688362e+04 9.688713e+04 3.503
14 regular 9 47 847 55 2.500000e+00 0.118 slower 1 9.689142e+04 9.689454e+04 3.117
14 regular 9 48 848 64 2.500000e+00 0.326 faster 1 9.689601e+04 9.689991e+04 3.904
14 regular 9 49 849 56 2.500000e+00 0.336 faster 0 9.690144e+04 9.690478e+04 3.335
14 regular 9 50 850 65 2.500000e+00 0.124 faster 1 9.690597e+04 9.690937e+04 3.403
14 regular 9 51 851 56 2.500000e+00 0.161 slower 1 9.691063e+04 9.691375e+04 3.126
14 regular 9 52 852 56 2.500000e+00 0.287 slower 1 9.691469e+04 9.691786e+04 3.173
14 regular 9 53 853 57 2.500000e+00 0.584 slower 1 9.691908e+04 9.692225e+04 3.171
14 regular 9 54 854 63 2.500000e+00 0.401 slower 0 9.692329e+04 9.692694e+04 3.644
14 regular 9 55 855 64 2.500000e+00 0.484 slower 0 9.692806e+04 9.693113e+04 3.067
14 regular 9 56 856 55 2.500000e+00 0.161 slower 1 9.693192e+04 9.693510e+04 3.180
14 regular 9 57 857 56 2.500000e+00 0.131 slower 1 9.693587e+04 9.693897e+04 3.099
14 regular 9 58 858 64 2.500000e+00 0.580 faster 1 9.694020e+04 9.694378e+04 3.589
14 regular 9 59 859 63 2.500000e+00 0.381 faster 1 9.694480e+04 9.694834e+04 3.545
14 regular 9 60 860 63 2.500000e+00 0.311 slower 0 9.695000e+04 9.695338e+04 3.383
14 regular 9 61 861 64 2.500000e+00 0.146 faster 1 9.695761e+04 9.696097e+04 3.359
14 regular 9 62 862 57 2.500000e+00 0.525 faster 0 9.696259e+04 9.696578e+04 3.199
14 regular 9 63 863 64 2.500000e+00 0.239 faster 1 9.696667e+04 9.696980e+04 3.135
14 regular 9 64 864 64 2.500000e+00 0.576 faster 1 9.697165e+04 9.697614e+04 4.482
14 regular 9 65 865 63 2.500000e+00 0.117 slower 0 9.697748e+04 9.698079e+04 3.312
14 regular 9 66 866 56 2.500000e+00 0.533 slower 1 9.698251e+04 9.698572e+04 3.209
14 regular 9 67 867 64 2.500000e+00 0.517 slower 0 9.698756e+04 9.699066e+04 3.106
14 regular 9 68 868 55 2.500000e+00 0.263 slower 1 9.699157e+04 9.699526e+04 3.690
14 regular 9 69 869 64 2.500000e+00 0.209 faster 1 9.699610e+04 9.699919e+04 3.092
14 regular 9 70 870 56 2.500000e+00 0.526 faster 0 9.700037e+04 9.700362e+04 3.258
14 regular 9 71 871 55 2.500000e+00 0.318 faster 0 9.700458e+04 9.700809e+04 3.504
14 regular 9 72 872 66 2.500000e+00 0.217 faster 1 9.700895e+04 9.701207e+04 3.126
14 regular 9 73 873 55 2.500000e+00 0.389 faster 0 9.701437e+04 9.701775e+04 3.379
14 regular 9 74 874 66 2.500000e+00 0.292 faster 1 9.702085e+04 9.702409e+04 3.234
14 regular 9 75 875 66 2.500000e+00 0.600 slower 0 9.702563e+04 9.702905e+04 3.415
14 regular 9 76 876 53 2.500000e+00 0.227 slower 1 9.703045e+04 9.703388e+04 3.427
14 regular 9 77 877 54 2.500000e+00 0.439 slower 1 9.703606e+04 9.703943e+04 3.372
14 regular 9 78 878 54 2.500000e+00 0.358 slower 1 9.704043e+04 9.704348e+04 3.048
14 regular 9 79 879 55 2.500000e+00 0.573 slower 1 9.704480e+04 9.704809e+04 3.290
14 regular 9 80 880 65 2.500000e+00 0.202 faster 1 9.705067e+04 9.705497e+04 4.298
14 regular 9 81 881 56 2.500000e+00 0.450 slower 1 9.705605e+04 9.705927e+04 3.223
14 regular 9 82 882 64 2.500000e+00 0.326 faster 1 9.706024e+04 9.706337e+04 3.128
14 regular 9 83 883 63 2.500000e+00 0.368 slower 0 9.706470e+04 9.706807e+04 3.372
14 regular 9 84 884 56 2.500000e+00 0.258 faster 0 9.706897e+04 9.707214e+04 3.167
14 regular 9 85 885 55 2.500000e+00 0.204 faster 0 9.707346e+04 9.707658e+04 3.122
14 regular 9 86 886 54 2.500000e+00 0.209 faster 0 9.707792e+04 9.708105e+04 3.129
14 regular 9 87 887 67 2.500000e+00 0.471 faster 1 9.708216e+04 9.708538e+04 3.223
14 regular 9 88 888 67 2.500000e+00 0.150 faster 1 9.708618e+04 9.708953e+04 3.347
14 regular 9 89 889 66 2.500000e+00 0.262 faster 1 9.709078e+04 9.709388e+04 3.105
14 regular 9 90 890 66 2.500000e+00 0.321 faster 1 9.709536e+04 9.709849e+04 3.132
14 regular 9 91 891 55 2.500000e+00 0.271 faster 0 9.709939e+04 9.710258e+04 3.195
14 regular 9 92 892 54 2.500000e+00 0.442 faster 0 9.710366e+04 9.710716e+04 3.502
14 regular 9 93 893 53 2.500000e+00 0.413 slower 1 9.710822e+04 9.711140e+04 3.185
14 regular 9 94 894 53 2.500000e+00 0.474 faster 0 9.711302e+04 9.711663e+04 3.614
14 regular 9 95 895 52 2.500000e+00 0.553 faster 0 9.711850e+04 9.712167e+04 3.172
14 regular 9 96 896 69 2.500000e+00 0.586 faster 1 9.712290e+04 9.712609e+04 3.191
14 regular 9 97 897 68 2.500000e+00 0.373 faster 1 9.712863e+04 9.713196e+04 3.326
14 regular 9 98 898 68 2.500000e+00 0.384 faster 1 9.713359e+04 9.713684e+04 3.252
14 regular 9 99 899 53 2.500000e+00 0.139 slower 1 9.713761e+04 9.714134e+04 3.726
14 regular 9 100 900 53 2.500000e+00 0.373 slower 1 9.714302e+04 9.714650e+04 3.480
14 irregular 10 1 901 66 1.500000e+00 0.418 faster 1 9.730124e+04 9.730353e+04 2.291
14 irregular 10 2 902 54 2 0.401 faster 0 9.730460e+04 9.730716e+04 2.562
14 irregular 10 3 903 53 2.500000e+00 0.108 slower 1 9.730848e+04 9.731212e+04 3.635
14 irregular 10 4 904 54 1 0.426 faster 0 9.731372e+04 9.731545e+04 1.729
14 irregular 10 5 905 53 2 0.443 faster 0 9.731713e+04 9.731970e+04 2.575
14 irregular 10 6 906 52 2.500000e+00 0.443 faster 0 9.732152e+04 9.732551e+04 3.989
14 irregular 10 7 907 51 3 0.576 slower 1 9.732676e+04 9.733058e+04 3.822
14 irregular 10 8 908 69 2 0.491 faster 1 9.733478e+04 9.733777e+04 2.989
14 irregular 10 9 909 68 1 0.549 faster 1 9.733942e+04 9.734122e+04 1.807
14 irregular 10 10 910 68 1.500000e+00 0.516 slower 0 9.734299e+04 9.734545e+04 2.460
14 irregular 10 11 911 51 1 0.277 faster 0 9.734695e+04 9.734884e+04 1.891
14 irregular 10 12 912 70 3 0.274 slower 0 9.734978e+04 9.735353e+04 3.746
14 irregular 10 13 913 49 1.500000e+00 0.303 slower 1 9.735502e+04 9.735735e+04 2.329
14 irregular 10 14 914 70 1 0.318 slower 0 9.735834e+04 9.736013e+04 1.793
14 irregular 10 15 915 49 3 0.470 faster 0 9.736128e+04 9.736599e+04 4.712
14 irregular 10 16 916 48 1.500000e+00 0.433 slower 1 9.736709e+04 9.736932e+04 2.225
14 irregular 10 17 917 48 2 0.489 slower 1 9.737050e+04 9.737335e+04 2.854
14 irregular 10 18 918 71 3 0.310 faster 1 9.737433e+04 9.737874e+04 4.410
14 irregular 10 19 919 71 3 0.590 faster 1 9.738123e+04 9.738558e+04 4.350
14 irregular 10 20 920 50 3 0.311 slower 1 9.738707e+04 9.739079e+04 3.721
14 irregular 10 21 921 70 3 0.485 faster 1 9.739242e+04 9.739618e+04 3.764
14 irregular 10 22 922 69 3 0.403 slower 0 9.739723e+04 9.740097e+04 3.741
14 irregular 10 23 923 70 2.500000e+00 0.355 faster 1 9.740306e+04 9.740623e+04 3.169
14 irregular 10 24 924 50 3 0.353 slower 1 9.740844e+04 9.741234e+04 3.900
14 irregular 10 25 925 69 2 0.421 faster 1 9.741405e+04 9.741673e+04 2.675
14 irregular 10 26 926 69 2.500000e+00 0.173 faster 1 9.741825e+04 9.742156e+04 3.313
14 irregular 10 27 927 68 1.500000e+00 0.386 faster 1 9.742262e+04 9.742479e+04 2.166
14 irregular 10 28 928 68 3 0.405 faster 1 9.742587e+04 9.742946e+04 3.593
14 irregular 10 29 929 67 2 0.329 faster 1 9.743290e+04 9.743644e+04 3.536
14 irregular 10 30 930 53 3 0.497 slower 1 9.743809e+04 9.744180e+04 3.706
14 irregular 10 31 931 54 1 0.475 slower 1 9.744294e+04 9.744468e+04 1.734
14 irregular 10 32 932 66 1.500000e+00 0.444 faster 1 9.744579e+04 9.744860e+04 2.813
14 irregular 10 33 933 55 1.500000e+00 0.572 faster 0 9.744981e+04 9.745231e+04 2.505
14 irregular 10 34 934 66 2.500000e+00 0.546 faster 1 9.745482e+04 9.745836e+04 3.542
14 irregular 10 35 935 66 1.500000e+00 0.163 faster 1 9.745921e+04 9.746167e+04 2.463
14 irregular 10 36 936 65 1 0.527 faster 1 9.746288e+04 9.746471e+04 1.833
14 irregular 10 37 937 65 3 0.350 faster 1 9.746573e+04 9.746946e+04 3.737
14 irregular 10 38 938 56 2.500000e+00 0.284 slower 1 9.747286e+04 9.747610e+04 3.242
14 irregular 10 39 939 56 1.500000e+00 0.574 slower 1 9.747888e+04 9.748165e+04 2.780
14 irregular 10 40 940 63 1 0.462 slower 0 9.748290e+04 9.748521e+04 2.302
14 irregular 10 41 941 56 2 0.126 slower 1 9.748601e+04 9.748884e+04 2.831
14 irregular 10 42 942 56 1 0.548 slower 1 9.749075e+04 9.749276e+04 2.013
14 irregular 10 43 943 57 2.500000e+00 0.396 faster 0 9.749383e+04 9.749746e+04 3.633
14 irregular 10 44 944 64 1 0.458 faster 1 9.749906e+04 9.750106e+04 1.999
14 irregular 10 45 945 64 3 0.216 faster 1 9.750255e+04 9.750636e+04 3.813
14 irregular 10 46 946 63 1.500000e+00 0.589 faster 1 9.750767e+04 9.751012e+04 2.450
14 irregular 10 47 947 57 2 0.559 faster 0 9.751136e+04 9.751415e+04 2.792
14 irregular 10 48 948 56 3 0.456 faster 0 9.751527e+04 9.751914e+04 3.873
14 irregular 10 49 949 55 1 0.373 faster 0 9.752230e+04 9.752423e+04 1.934
14 irregular 10 50 950 66 2.500000e+00 0.220 faster 1 9.752665e+04 9.753001e+04 3.355
14 irregular 10 51 951 55 1.500000e+00 0.266 faster 0 9.753094e+04 9.753383e+04 2.890
14 irregular 10 52 952 66 2.500000e+00 0.102 faster 1 9.754068e+04 9.754396e+04 3.283
14 irregular 10 53 953 54 1.500000e+00 0.275 faster 0 9.754538e+04 9.754759e+04 2.209
14 irregular 10 54 954 53 2.500000e+00 0.380 slower 1 9.754866e+04 9.755225e+04 3.585
14 irregular 10 55 955 66 2.500000e+00 0.350 slower 0 9.755387e+04 9.755703e+04 3.162
14 irregular 10 56 956 53 1 0.442 faster 0 9.755815e+04 9.756039e+04 2.246
14 irregular 10 57 957 52 1 0.444 slower 1 9.756148e+04 9.756343e+04 1.955
14 irregular 10 58 958 52 2 0.310 slower 1 9.756562e+04 9.756850e+04 2.886
14 irregular 10 59 959 67 3 0.383 faster 1 9.757633e+04 9.758017e+04 3.836
14 irregular 10 60 960 67 1.500000e+00 0.320 faster 1 9.758117e+04 9.758340e+04 2.234
14 irregular 10 61 961 54 1.500000e+00 0.406 faster 0 9.758481e+04 9.758700e+04 2.189
14 irregular 10 62 962 53 1.500000e+00 0.589 faster 0 9.758902e+04 9.759114e+04 2.118
14 irregular 10 63 963 52 3 0.449 faster 0 9.759439e+04 9.759829e+04 3.907
14 irregular 10 64 964 51 3 0.350 faster 0 9.759929e+04 9.760324e+04 3.945
14 irregular 10 65 965 50 1.500000e+00 0.232 faster 0 9.760412e+04 9.760653e+04 2.412
14 irregular 10 66 966 49 2 0.397 slower 1 9.760930e+04 9.761241e+04 3.104
14 irregular 10 67 967 49 2 0.320 slower 1 9.763247e+04 9.763580e+04 3.327
14 irregular 10 68 968 50 2 0.291 slower 1 9.763879e+04 9.764217e+04 3.381
14 irregular 10 69 969 50 2 0.459 slower 1 9.764413e+04 9.764717e+04 3.047
14 irregular 10 70 970 69 3 0.258 faster 1 9.764828e+04 9.765226e+04 3.987
14 irregular 10 71 971 51 3 0.366 slower 1 9.765377e+04 9.765769e+04 3.916
14 irregular 10 72 972 52 2.500000e+00 0.236 slower 1 9.765923e+04 9.766241e+04 3.177
14 irregular 10 73 973 68 1.500000e+00 0.390 slower 0 9.766347e+04 9.766567e+04 2.199
14 irregular 10 74 974 69 1 0.555 slower 0 9.766773e+04 9.767124e+04 3.505
14 irregular 10 75 975 50 2.500000e+00 0.275 slower 1 9.768010e+04 9.768349e+04 3.397
14 irregular 10 76 976 69 2 0.326 faster 1 9.768514e+04 9.768788e+04 2.736
14 irregular 10 77 977 69 1 0.305 faster 1 9.777554e+04 9.777749e+04 1.950
14 irregular 10 78 978 68 1.500000e+00 0.385 faster 1 9.778016e+04 9.778255e+04 2.394
14 irregular 10 79 979 52 1 0.153 slower 1 9.778339e+04 9.778514e+04 1.754
14 irregular 10 80 980 53 1 0.419 slower 1 9.778619e+04 9.778781e+04 1.622
14 irregular 10 81 981 53 1 0.398 slower 1 9.778885e+04 9.779068e+04 1.824
14 irregular 10 82 982 66 2 0.600 slower 0 9.779263e+04 9.779557e+04 2.944
14 irregular 10 83 983 53 2.500000e+00 0.110 slower 1 9.779783e+04 9.780109e+04 3.260
14 irregular 10 84 984 67 2.500000e+00 0.349 slower 0 9.780209e+04 9.780530e+04 3.214
14 irregular 10 85 985 68 2 0.114 slower 0 9.780609e+04 9.780895e+04 2.867
14 irregular 10 86 986 69 1 0.495 slower 0 9.781077e+04 9.781247e+04 1.704
14 irregular 10 87 987 70 1 0.563 slower 0 9.781373e+04 9.781546e+04 1.733
14 irregular 10 88 988 71 2.500000e+00 0.157 faster 1 9.781932e+04 9.782277e+04 3.459
14 irregular 10 89 989 70 2 0.112 faster 1 9.782525e+04 9.782837e+04 3.129
14 irregular 10 90 990 50 1.500000e+00 0.571 faster 0 9.783391e+04 9.783621e+04 2.307
14 irregular 10 91 991 49 2.500000e+00 0.257 faster 0 9.783873e+04 9.784228e+04 3.544
14 irregular 10 92 992 72 2.500000e+00 0.262 faster 1 9.784364e+04 9.784689e+04 3.246
14 irregular 10 93 993 71 2 0.247 faster 1 9.784966e+04 9.785228e+04 2.613
14 irregular 10 94 994 71 1 0.447 slower 0 9.785340e+04 9.785535e+04 1.946
14 irregular 10 95 995 48 3 0.445 slower 1 9.786198e+04 9.786583e+04 3.855
14 irregular 10 96 996 49 2.500000e+00 0.167 slower 1 9.786821e+04 9.787153e+04 3.320
14 irregular 10 97 997 71 1.500000e+00 0.352 faster 1 9.787359e+04 9.787599e+04 2.402
14 irregular 10 98 998 70 2 0.236 faster 1 9.787777e+04 9.788044e+04 2.671
14 irregular 10 99 999 70 2 0.440 slower 0 9.788153e+04 9.788482e+04 3.294
14 irregular 10 100 1000 71 2.500000e+00 0.575 faster 1 9.789584e+04 9.789914e+04 3.306
