subNo condition blockNo trialNo trialID currentFrequency cueTargetInterval randomPreCueInterval response responseAccuracy startTime responseTime RT
31 irregular 1 1 1 65 1 0.153 faster 1 2.158966e+06 2.158968e+06 1.756
31 irregular 1 2 2 55 1 0.199 faster 0 2.158969e+06 2.158971e+06 1.762
31 irregular 1 3 3 53 1 0.240 faster 0 2.158972e+06 2.158974e+06 1.862
31 irregular 1 4 4 69 3 0.146 slower 0 2.158975e+06 2.158979e+06 3.700
31 irregular 1 5 5 71 2.500000e+00 0.583 faster 1 2.158981e+06 2.158984e+06 3.242
31 irregular 1 6 6 51 2.500000e+00 0.529 slower 1 2.158986e+06 2.158989e+06 3.184
31 irregular 1 7 7 51 1 0.143 slower 1 2.158990e+06 2.158992e+06 2.125
31 irregular 1 8 8 67 1 0.355 slower 0 2.158993e+06 2.158995e+06 1.826
31 irregular 1 9 9 69 3 0.464 faster 1 2.158996e+06 2.159000e+06 3.852
31 irregular 1 10 10 69 1 0.147 slower 0 2.159001e+06 2.159003e+06 1.726
31 irregular 1 11 11 49 2.500000e+00 0.580 slower 1 2.159004e+06 2.159008e+06 3.256
31 irregular 1 12 12 69 1.500000e+00 0.475 faster 1 2.159009e+06 2.159011e+06 2.407
31 irregular 1 13 13 69 1.500000e+00 0.504 slower 0 2.159013e+06 2.159015e+06 2.289
31 irregular 1 14 14 50 1 0.275 slower 1 2.159016e+06 2.159018e+06 1.826
31 irregular 1 15 15 69 3 0.323 faster 1 2.159019e+06 2.159023e+06 3.552
31 irregular 1 16 16 69 1.500000e+00 0.271 faster 1 2.159025e+06 2.159027e+06 2.448
31 irregular 1 17 17 68 1.500000e+00 0.426 faster 1 2.159029e+06 2.159031e+06 2.364
31 irregular 1 18 18 52 1 0.522 faster 0 2.159033e+06 2.159035e+06 1.511
31 irregular 1 19 19 69 3 0.377 slower 0 2.159036e+06 2.159041e+06 4.567
31 irregular 1 20 20 50 3 0.274 slower 1 2.159042e+06 2.159046e+06 3.942
31 irregular 1 21 21 69 2 0.251 faster 1 2.159047e+06 2.159050e+06 3.174
31 irregular 1 22 22 69 1.500000e+00 0.400 faster 1 2.159051e+06 2.159054e+06 2.552
31 irregular 1 23 23 68 2 0.339 faster 1 2.159055e+06 2.159058e+06 2.837
31 irregular 1 24 24 52 2.500000e+00 0.511 faster 0 2.159059e+06 2.159063e+06 3.568
31 irregular 1 25 25 69 1.500000e+00 0.581 faster 1 2.159064e+06 2.159067e+06 2.375
31 irregular 1 26 26 52 3 0.524 faster 0 2.159068e+06 2.159072e+06 3.916
31 irregular 1 27 27 51 2.500000e+00 0.168 slower 1 2.159073e+06 2.159076e+06 3.462
31 irregular 1 28 28 51 2.500000e+00 0.146 slower 1 2.159077e+06 2.159081e+06 3.448
31 irregular 1 29 29 52 2 0.434 faster 0 2.159082e+06 2.159085e+06 2.969
31 irregular 1 30 30 51 1 0.267 slower 1 2.159086e+06 2.159088e+06 1.801
31 irregular 1 31 31 69 2.500000e+00 0.217 faster 1 2.159089e+06 2.159093e+06 3.976
31 irregular 1 32 32 52 3 0.198 slower 1 2.159094e+06 2.159098e+06 4.052
31 irregular 1 33 33 68 1 0.575 slower 0 2.159100e+06 2.159102e+06 1.823
31 irregular 1 34 34 69 2 0.207 faster 1 2.159103e+06 2.159106e+06 2.884
31 irregular 1 35 35 68 2 0.106 slower 0 2.159107e+06 2.159110e+06 3.024
31 irregular 1 36 36 69 2.500000e+00 0.146 faster 1 2.159111e+06 2.159114e+06 3.410
31 irregular 1 37 37 51 2.500000e+00 0.584 slower 1 2.159116e+06 2.159119e+06 3.171
31 irregular 1 38 38 52 1 0.316 slower 1 2.159120e+06 2.159122e+06 1.798
31 irregular 1 39 39 68 2 0.391 faster 1 2.159123e+06 2.159126e+06 3.093
31 irregular 1 40 40 53 2 0.119 slower 1 2.159127e+06 2.159130e+06 3.027
31 irregular 1 41 41 53 3 0.596 slower 1 2.159131e+06 2.159135e+06 3.851
31 irregular 1 42 42 54 2 0.441 slower 1 2.159137e+06 2.159139e+06 2.788
31 irregular 1 43 43 54 3 0.161 faster 0 2.159140e+06 2.159144e+06 3.731
31 irregular 1 44 44 53 2 0.515 faster 0 2.159146e+06 2.159149e+06 2.970
31 irregular 1 45 45 68 1.500000e+00 0.300 faster 1 2.159150e+06 2.159152e+06 2.434
31 irregular 1 46 46 53 1.500000e+00 0.595 slower 1 2.159154e+06 2.159156e+06 2.754
31 irregular 1 47 47 53 1.500000e+00 0.566 slower 1 2.159158e+06 2.159160e+06 2.255
31 irregular 1 48 48 66 1 0.344 slower 0 2.159161e+06 2.159163e+06 2.220
31 irregular 1 49 49 67 2.500000e+00 0.585 faster 1 2.159165e+06 2.159168e+06 3.410
31 irregular 1 50 50 67 2.500000e+00 0.267 slower 0 2.159169e+06 2.159173e+06 3.463
31 irregular 1 51 51 52 1.500000e+00 0.241 slower 1 2.159174e+06 2.159176e+06 2.270
31 irregular 1 52 52 67 2.500000e+00 0.505 faster 1 2.159178e+06 2.159181e+06 3.265
31 irregular 1 53 53 53 2 0.219 slower 1 2.159182e+06 2.159185e+06 2.960
31 irregular 1 54 54 54 3 0.297 faster 0 2.159186e+06 2.159190e+06 3.840
31 irregular 1 55 55 53 1.500000e+00 0.139 slower 1 2.159191e+06 2.159193e+06 2.563
31 irregular 1 56 56 53 2 0.186 slower 1 2.159195e+06 2.159197e+06 2.728
31 irregular 1 57 57 54 1.500000e+00 0.118 faster 0 2.159198e+06 2.159201e+06 2.464
31 irregular 1 58 58 67 1 0.326 slower 0 2.159202e+06 2.159204e+06 1.752
31 irregular 1 59 59 52 2.500000e+00 0.336 faster 0 2.159205e+06 2.159208e+06 3.345
31 irregular 1 60 60 51 2 0.124 faster 0 2.159209e+06 2.159212e+06 3.011
31 irregular 1 61 61 70 2.500000e+00 0.161 faster 1 2.159214e+06 2.159217e+06 3.308
31 irregular 1 62 62 50 2 0.287 slower 1 2.159219e+06 2.159221e+06 2.616
31 irregular 1 63 63 69 2.500000e+00 0.584 faster 1 2.159223e+06 2.159226e+06 3.411
31 irregular 1 64 64 51 3 0.401 slower 1 2.159227e+06 2.159231e+06 3.999
31 irregular 1 65 65 52 2.500000e+00 0.484 slower 1 2.159233e+06 2.159236e+06 3.222
31 irregular 1 66 66 52 2.500000e+00 0.161 slower 1 2.159237e+06 2.159241e+06 3.319
31 irregular 1 67 67 53 1.500000e+00 0.131 slower 1 2.159242e+06 2.159244e+06 2.293
31 irregular 1 68 68 53 1.500000e+00 0.580 slower 1 2.159245e+06 2.159248e+06 2.309
31 irregular 1 69 69 54 1 0.381 slower 1 2.159249e+06 2.159251e+06 1.885
31 irregular 1 70 70 66 1 0.311 slower 0 2.159252e+06 2.159254e+06 1.970
31 irregular 1 71 71 67 1 0.146 slower 0 2.159255e+06 2.159257e+06 2.126
31 irregular 1 72 72 52 1 0.525 slower 1 2.159258e+06 2.159260e+06 1.716
31 irregular 1 73 73 53 3 0.239 faster 0 2.159261e+06 2.159265e+06 3.912
31 irregular 1 74 74 68 2.500000e+00 0.576 faster 1 2.159267e+06 2.159270e+06 3.135
31 irregular 1 75 75 68 1.500000e+00 0.117 slower 0 2.159271e+06 2.159273e+06 2.371
31 irregular 1 76 76 69 1 0.533 slower 0 2.159274e+06 2.159276e+06 2.029
31 irregular 1 77 77 70 2 0.517 faster 1 2.159278e+06 2.159281e+06 2.794
31 irregular 1 78 78 69 3 0.263 faster 1 2.159282e+06 2.159285e+06 3.810
31 irregular 1 79 79 51 2 0.209 slower 1 2.159287e+06 2.159289e+06 2.836
31 irregular 1 80 80 68 2 0.526 slower 0 2.159291e+06 2.159294e+06 2.836
31 irregular 1 81 81 69 2 0.318 slower 0 2.159295e+06 2.159298e+06 2.941
31 irregular 1 82 82 70 3 0.217 slower 0 2.159299e+06 2.159302e+06 3.693
31 irregular 1 83 83 71 2 0.389 faster 1 2.159304e+06 2.159307e+06 3.032
31 irregular 1 84 84 49 1 0.292 slower 1 2.159308e+06 2.159310e+06 1.797
31 irregular 1 85 85 70 3 0.600 faster 1 2.159311e+06 2.159315e+06 3.653
31 irregular 1 86 86 70 2 0.227 slower 0 2.159316e+06 2.159319e+06 3.052
31 irregular 1 87 87 71 1.500000e+00 0.439 slower 0 2.159320e+06 2.159323e+06 2.378
31 irregular 1 88 88 72 3 0.358 faster 1 2.159324e+06 2.159328e+06 4.170
31 irregular 1 89 89 49 3 0.573 slower 1 2.159329e+06 2.159333e+06 3.729
31 irregular 1 90 90 49 3 0.202 slower 1 2.159334e+06 2.159338e+06 3.680
31 irregular 1 91 91 50 2.500000e+00 0.450 slower 1 2.159339e+06 2.159342e+06 3.208
31 irregular 1 92 92 50 2 0.326 slower 1 2.159345e+06 2.159347e+06 2.686
31 irregular 1 93 93 51 1.500000e+00 0.368 slower 1 2.159349e+06 2.159351e+06 2.332
31 irregular 1 94 94 69 1 0.258 faster 1 2.159352e+06 2.159354e+06 1.780
31 irregular 1 95 95 52 1.500000e+00 0.204 faster 0 2.159355e+06 2.159357e+06 2.434
31 irregular 1 96 96 69 2.500000e+00 0.209 faster 1 2.159358e+06 2.159362e+06 3.288
31 irregular 1 97 97 69 1.500000e+00 0.471 faster 1 2.159363e+06 2.159365e+06 2.281
31 irregular 1 98 98 52 1.500000e+00 0.150 faster 0 2.159366e+06 2.159369e+06 2.475
31 irregular 1 99 99 69 3 0.262 faster 1 2.159370e+06 2.159374e+06 3.854
31 irregular 1 100 100 69 3 0.321 faster 1 2.159375e+06 2.159379e+06 3.943
31 regular 2 1 101 68 1 0.271 faster 1 2.159415e+06 2.159417e+06 2.381
31 regular 2 2 102 68 1 0.442 slower 0 2.159419e+06 2.159421e+06 2.245
31 regular 2 3 103 69 1 0.413 faster 1 2.159422e+06 2.159424e+06 1.787
31 regular 2 4 104 68 1 0.474 slower 0 2.159425e+06 2.159427e+06 2.002
31 regular 2 5 105 51 1 0.553 slower 1 2.159429e+06 2.159430e+06 1.794
31 regular 2 6 106 69 1 0.586 faster 1 2.159432e+06 2.159434e+06 1.885
31 regular 2 7 107 68 1 0.373 faster 1 2.159435e+06 2.159437e+06 1.659
31 regular 2 8 108 68 1 0.384 faster 1 2.159438e+06 2.159440e+06 1.733
31 regular 2 9 109 67 1 0.139 faster 1 2.159441e+06 2.159442e+06 1.672
31 regular 2 10 110 53 1 0.373 faster 0 2.159444e+06 2.159445e+06 1.537
31 regular 2 11 111 52 1 0.568 slower 1 2.159446e+06 2.159448e+06 1.665
31 regular 2 12 112 67 1 0.338 faster 1 2.159449e+06 2.159451e+06 1.574
31 regular 2 13 113 67 1 0.245 faster 1 2.159452e+06 2.159453e+06 1.583
31 regular 2 14 114 66 1 0.143 faster 1 2.159454e+06 2.159456e+06 1.757
31 regular 2 15 115 66 1 0.477 slower 0 2.159458e+06 2.159459e+06 1.515
31 regular 2 16 116 67 1 0.268 faster 1 2.159460e+06 2.159462e+06 1.536
31 regular 2 17 117 66 1 0.436 slower 0 2.159463e+06 2.159465e+06 1.922
31 regular 2 18 118 53 1 0.272 slower 1 2.159466e+06 2.159468e+06 1.632
31 regular 2 19 119 53 1 0.172 slower 1 2.159469e+06 2.159470e+06 1.720
31 regular 2 20 120 66 1 0.251 faster 1 2.159471e+06 2.159473e+06 1.575
31 regular 2 21 121 54 1 0.108 slower 1 2.159474e+06 2.159476e+06 1.821
31 regular 2 22 122 55 1 0.335 faster 0 2.159477e+06 2.159478e+06 1.629
31 regular 2 23 123 54 1 0.296 faster 0 2.159480e+06 2.159481e+06 1.535
31 regular 2 24 124 53 1 0.402 slower 1 2.159482e+06 2.159484e+06 1.652
31 regular 2 25 125 67 1 0.363 faster 1 2.159485e+06 2.159487e+06 1.497
31 regular 2 26 126 54 1 0.302 faster 0 2.159488e+06 2.159490e+06 2.001
31 regular 2 27 127 53 1 0.119 slower 1 2.159491e+06 2.159493e+06 1.631
31 regular 2 28 128 67 1 0.156 faster 1 2.159494e+06 2.159495e+06 1.701
31 regular 2 29 129 66 1 0.292 faster 1 2.159496e+06 2.159498e+06 1.578
31 regular 2 30 130 66 1 0.274 faster 1 2.159499e+06 2.159501e+06 1.574
31 regular 2 31 131 55 1 0.496 faster 0 2.159502e+06 2.159504e+06 1.727
31 regular 2 32 132 66 1 0.321 faster 1 2.159505e+06 2.159507e+06 1.678
31 regular 2 33 133 54 1 0.246 faster 0 2.159508e+06 2.159509e+06 1.608
31 regular 2 34 134 53 1 0.512 faster 0 2.159511e+06 2.159512e+06 1.500
31 regular 2 35 135 52 1 0.448 faster 0 2.159514e+06 2.159515e+06 1.559
31 regular 2 36 136 69 1 0.126 faster 1 2.159516e+06 2.159518e+06 1.614
31 regular 2 37 137 52 1 0.533 faster 0 2.159519e+06 2.159521e+06 1.620
31 regular 2 38 138 51 1 0.466 faster 0 2.159522e+06 2.159524e+06 1.874
31 regular 2 39 139 70 1 0.480 faster 1 2.159525e+06 2.159527e+06 1.577
31 regular 2 40 140 70 1 0.369 faster 1 2.159528e+06 2.159530e+06 1.605
31 regular 2 41 141 69 1 0.426 faster 1 2.159531e+06 2.159533e+06 1.556
31 regular 2 42 142 69 1 0.496 faster 1 2.159534e+06 2.159536e+06 1.694
31 regular 2 43 143 68 1 0.562 faster 1 2.159537e+06 2.159539e+06 1.816
31 regular 2 44 144 68 1 0.553 faster 1 2.159540e+06 2.159542e+06 1.590
31 regular 2 45 145 53 1 0.514 slower 1 2.159543e+06 2.159545e+06 1.735
31 regular 2 46 146 53 1 0.589 faster 0 2.159547e+06 2.159548e+06 1.746
31 regular 2 47 147 52 1 0.447 faster 0 2.159550e+06 2.159552e+06 1.861
31 regular 2 48 148 69 1 0.582 faster 1 2.159553e+06 2.159555e+06 1.703
31 regular 2 49 149 52 1 0.459 faster 0 2.159556e+06 2.159558e+06 1.714
31 regular 2 50 150 69 1 0.501 faster 1 2.159559e+06 2.159561e+06 1.612
31 regular 2 51 151 51 1 0.416 slower 1 2.159562e+06 2.159564e+06 1.779
31 regular 2 52 152 52 1 0.273 faster 0 2.159565e+06 2.159567e+06 1.779
31 regular 2 53 153 51 1 0.346 slower 1 2.159568e+06 2.159570e+06 1.688
31 regular 2 54 154 51 1 0.180 faster 0 2.159571e+06 2.159573e+06 1.560
31 regular 2 55 155 70 1 0.329 slower 0 2.159574e+06 2.159576e+06 1.848
31 regular 2 56 156 71 1 0.187 faster 1 2.159577e+06 2.159579e+06 1.591
31 regular 2 57 157 50 1 0.287 faster 0 2.159580e+06 2.159582e+06 2.065
31 regular 2 58 158 49 1 0.293 slower 1 2.159583e+06 2.159585e+06 1.606
31 regular 2 59 159 49 1 0.406 faster 0 2.159586e+06 2.159587e+06 1.796
31 regular 2 60 160 48 1 0.102 slower 1 2.159589e+06 2.159590e+06 1.849
31 regular 2 61 161 71 1 0.382 faster 1 2.159592e+06 2.159593e+06 1.705
31 regular 2 62 162 71 1 0.276 slower 0 2.159595e+06 2.159596e+06 1.796
31 regular 2 63 163 48 1 0.446 slower 1 2.159598e+06 2.159599e+06 1.700
31 regular 2 64 164 49 1 0.235 faster 0 2.159600e+06 2.159602e+06 1.731
31 regular 2 65 165 48 1 0.238 slower 1 2.159603e+06 2.159605e+06 1.745
31 regular 2 66 166 48 1 0.383 faster 0 2.159606e+06 2.159608e+06 1.557
31 regular 2 67 167 73 1 0.521 faster 1 2.159609e+06 2.159611e+06 1.728
31 regular 2 68 168 72 1 0.487 slower 0 2.159613e+06 2.159615e+06 1.821
31 regular 2 69 169 47 1 0.364 slower 1 2.159616e+06 2.159620e+06 3.703
31 regular 2 70 170 73 1 0.498 faster 1 2.159621e+06 2.159623e+06 2.058
31 regular 2 71 171 48 1 0.521 slower 1 2.159624e+06 2.159626e+06 1.744
31 regular 2 72 172 72 1 0.598 faster 1 2.159628e+06 2.159629e+06 1.591
31 regular 2 73 173 49 1 0.368 faster 0 2.159630e+06 2.159632e+06 1.698
31 regular 2 74 174 72 1 0.418 faster 1 2.159633e+06 2.159635e+06 1.573
31 regular 2 75 175 48 1 0.541 slower 1 2.159636e+06 2.159638e+06 1.605
31 regular 2 76 176 71 1 0.118 faster 1 2.159639e+06 2.159640e+06 1.561
31 regular 2 77 177 49 1 0.438 slower 1 2.159642e+06 2.159644e+06 1.749
31 regular 2 78 178 70 1 0.129 faster 1 2.159645e+06 2.159646e+06 1.493
31 regular 2 79 179 70 1 0.143 faster 1 2.159647e+06 2.159649e+06 1.635
31 regular 2 80 180 51 1 0.177 faster 0 2.159650e+06 2.159652e+06 1.845
31 regular 2 81 181 50 1 0.495 slower 1 2.159654e+06 2.159655e+06 1.797
31 regular 2 82 182 70 1 0.575 faster 1 2.159657e+06 2.159658e+06 1.566
31 regular 2 83 183 51 1 0.349 faster 0 2.159660e+06 2.159661e+06 1.514
31 regular 2 84 184 70 1 0.230 faster 1 2.159662e+06 2.159664e+06 1.541
31 regular 2 85 185 50 1 0.596 slower 1 2.159665e+06 2.159667e+06 1.663
31 regular 2 86 186 51 1 0.102 faster 0 2.159668e+06 2.159670e+06 1.469
31 regular 2 87 187 70 1 0.340 faster 1 2.159671e+06 2.159673e+06 1.720
31 regular 2 88 188 50 1 0.436 slower 1 2.159674e+06 2.159676e+06 1.589
31 regular 2 89 189 69 1 0.296 faster 1 2.159677e+06 2.159678e+06 1.627
31 regular 2 90 190 51 1 0.210 slower 1 2.159679e+06 2.159681e+06 1.728
31 regular 2 91 191 68 1 0.418 faster 1 2.159682e+06 2.159684e+06 1.573
31 regular 2 92 192 52 1 0.430 faster 0 2.159685e+06 2.159687e+06 1.604
31 regular 2 93 193 69 1 0.408 faster 1 2.159688e+06 2.159690e+06 1.736
31 regular 2 94 194 68 1 0.132 slower 0 2.159691e+06 2.159693e+06 1.796
31 regular 2 95 195 51 1 0.496 faster 0 2.159694e+06 2.159696e+06 1.554
31 regular 2 96 196 50 1 0.389 slower 1 2.159697e+06 2.159699e+06 1.578
31 regular 2 97 197 50 1 0.168 slower 1 2.159700e+06 2.159702e+06 1.835
31 regular 2 98 198 69 1 0.597 faster 1 2.159703e+06 2.159705e+06 1.608
31 regular 2 99 199 69 1 0.190 faster 1 2.159706e+06 2.159708e+06 1.912
31 regular 2 100 200 52 1 0.524 faster 0 2.159709e+06 2.159711e+06 1.641
31 irregular 3 1 201 51 3 0.485 faster 0 2.159725e+06 2.159711e+06 -14.522
31 irregular 3 2 202 70 1 0.248 faster 1 2.159730e+06 2.159731e+06 1.701
31 irregular 3 3 203 70 2 0.220 faster 1 2.159732e+06 2.159735e+06 2.637
31 irregular 3 4 204 69 3 0.113 faster 1 2.159737e+06 2.159741e+06 3.844
31 irregular 3 5 205 51 2 0.123 faster 0 2.159742e+06 2.159745e+06 3.182
31 irregular 3 6 206 70 2 0.501 faster 1 2.159746e+06 2.159749e+06 2.690
31 irregular 3 7 207 69 2.500000e+00 0.217 faster 1 2.159750e+06 2.159753e+06 3.223
31 irregular 3 8 208 69 3 0.238 faster 1 2.159755e+06 2.159759e+06 3.804
31 irregular 3 9 209 52 2.500000e+00 0.378 faster 0 2.159760e+06 2.159763e+06 3.331
31 irregular 3 10 210 51 1.500000e+00 0.130 slower 1 2.159764e+06 2.159767e+06 2.264
31 irregular 3 11 211 69 1.500000e+00 0.196 faster 1 2.159768e+06 2.159770e+06 2.098
31 irregular 3 12 212 52 3 0.519 slower 1 2.159772e+06 2.159776e+06 4.045
31 irregular 3 13 213 52 1 0.346 faster 0 2.159777e+06 2.159779e+06 1.955
31 irregular 3 14 214 51 1 0.579 faster 0 2.159780e+06 2.159782e+06 1.677
31 irregular 3 15 215 70 2 0.111 faster 1 2.159783e+06 2.159786e+06 2.814
31 irregular 3 16 216 69 1.500000e+00 0.584 faster 1 2.159788e+06 2.159790e+06 2.269
31 irregular 3 17 217 51 1.500000e+00 0.379 faster 0 2.159791e+06 2.159794e+06 2.373
31 irregular 3 18 218 70 1.500000e+00 0.123 faster 1 2.159795e+06 2.159797e+06 2.336
31 irregular 3 19 219 69 3 0.397 slower 0 2.159799e+06 2.159802e+06 3.769
31 irregular 3 20 220 50 3 0.527 slower 1 2.159804e+06 2.159807e+06 3.777
31 irregular 3 21 221 50 2.500000e+00 0.179 faster 0 2.159808e+06 2.159811e+06 2.676
31 irregular 3 22 222 71 1 0.335 slower 0 2.159813e+06 2.159815e+06 2.053
31 irregular 3 23 223 72 2 0.274 faster 1 2.159816e+06 2.159819e+06 3.095
31 irregular 3 24 224 71 3 0.231 faster 1 2.159820e+06 2.159824e+06 3.828
31 irregular 3 25 225 49 1.500000e+00 0.420 slower 1 2.159825e+06 2.159828e+06 2.265
31 irregular 3 26 226 70 1.500000e+00 0.341 faster 1 2.159829e+06 2.159831e+06 2.181
31 irregular 3 27 227 70 1 0.507 faster 1 2.159833e+06 2.159834e+06 1.860
31 irregular 3 28 228 51 3 0.148 slower 1 2.159836e+06 2.159840e+06 3.853
31 irregular 3 29 229 51 2.500000e+00 0.258 faster 0 2.159841e+06 2.159844e+06 3.088
31 irregular 3 30 230 70 1 0.107 slower 0 2.159845e+06 2.159847e+06 2.433
31 irregular 3 31 231 49 1.500000e+00 0.276 slower 1 2.159849e+06 2.159851e+06 2.119
31 irregular 3 32 232 70 2.500000e+00 0.136 faster 1 2.159852e+06 2.159855e+06 3.070
31 irregular 3 33 233 70 1.500000e+00 0.450 faster 1 2.159856e+06 2.159859e+06 2.296
31 irregular 3 34 234 51 1.500000e+00 0.290 slower 1 2.159860e+06 2.159863e+06 2.463
31 irregular 3 35 235 69 1.500000e+00 0.111 faster 1 2.159865e+06 2.159867e+06 2.072
31 irregular 3 36 236 68 3 0.532 faster 1 2.159869e+06 2.159873e+06 3.962
31 irregular 3 37 237 68 2 0.303 slower 0 2.159874e+06 2.159877e+06 2.991
31 irregular 3 38 238 69 3 0.393 slower 0 2.159879e+06 2.159883e+06 4.007
31 irregular 3 39 239 50 1 0.117 slower 1 2.159884e+06 2.159886e+06 1.985
31 irregular 3 40 240 69 2 0.167 faster 1 2.159887e+06 2.159889e+06 2.541
31 irregular 3 41 241 51 2.500000e+00 0.435 slower 1 2.159891e+06 2.159894e+06 3.477
31 irregular 3 42 242 68 2.500000e+00 0.429 faster 1 2.159896e+06 2.159899e+06 3.052
31 irregular 3 43 243 68 2.500000e+00 0.261 faster 1 2.159900e+06 2.159903e+06 3.351
31 irregular 3 44 244 67 3 0.278 slower 0 2.159904e+06 2.159908e+06 3.890
31 irregular 3 45 245 52 3 0.185 faster 0 2.159909e+06 2.159913e+06 3.638
31 irregular 3 46 246 69 2.500000e+00 0.270 faster 1 2.159914e+06 2.159918e+06 3.246
31 irregular 3 47 247 69 2.500000e+00 0.309 faster 1 2.159919e+06 2.159922e+06 3.352
31 irregular 3 48 248 52 1.500000e+00 0.470 slower 1 2.159923e+06 2.159926e+06 2.461
31 irregular 3 49 249 52 2.500000e+00 0.129 slower 1 2.159927e+06 2.159930e+06 3.587
31 irregular 3 50 250 53 2 0.111 faster 0 2.159932e+06 2.159934e+06 2.637
31 irregular 3 51 251 68 2 0.379 faster 1 2.159936e+06 2.159938e+06 2.778
31 irregular 3 52 252 68 3 0.547 faster 1 2.159940e+06 2.159944e+06 3.686
31 irregular 3 53 253 53 3 0.451 faster 0 2.159945e+06 2.159949e+06 3.833
31 irregular 3 54 254 52 2.500000e+00 0.175 slower 1 2.159950e+06 2.159954e+06 3.815
31 irregular 3 55 255 52 1 0.497 slower 1 2.159956e+06 2.159957e+06 1.824
31 irregular 3 56 256 53 2 0.141 faster 0 2.159959e+06 2.159962e+06 3.078
31 irregular 3 57 257 52 1 0.429 slower 1 2.159963e+06 2.159965e+06 2.012
31 irregular 3 58 258 52 1.500000e+00 0.147 faster 0 2.159966e+06 2.159968e+06 2.181
31 irregular 3 59 259 51 2.500000e+00 0.364 slower 1 2.159970e+06 2.159973e+06 3.370
31 irregular 3 60 260 52 1 0.241 slower 1 2.159975e+06 2.159976e+06 1.881
31 irregular 3 61 261 52 1 0.190 slower 1 2.159978e+06 2.159979e+06 1.757
31 irregular 3 62 262 67 2.500000e+00 0.575 faster 1 2.159981e+06 2.159985e+06 3.503
31 irregular 3 63 263 67 1 0.113 faster 1 2.159986e+06 2.159988e+06 2.085
31 irregular 3 64 264 66 2.500000e+00 0.204 faster 1 2.159989e+06 2.159992e+06 3.217
31 irregular 3 65 265 54 1 0.286 slower 1 2.159993e+06 2.159995e+06 1.925
31 irregular 3 66 266 65 1 0.210 faster 1 2.159996e+06 2.159998e+06 1.706
31 irregular 3 67 267 55 1.500000e+00 0.495 slower 1 2.160000e+06 2.160002e+06 2.582
31 irregular 3 68 268 56 3 0.228 faster 0 2.160003e+06 2.160007e+06 3.943
31 irregular 3 69 269 55 2 0.512 faster 0 2.160009e+06 2.160012e+06 3.027
31 irregular 3 70 270 54 2 0.260 faster 0 2.160013e+06 2.160016e+06 3.228
31 irregular 3 71 271 67 1 0.393 faster 1 2.160017e+06 2.160019e+06 1.871
31 irregular 3 72 272 53 1 0.547 faster 0 2.160021e+06 2.160022e+06 1.885
31 irregular 3 73 273 68 1.500000e+00 0.504 faster 1 2.160024e+06 2.160026e+06 2.276
31 irregular 3 74 274 53 2 0.389 slower 1 2.160028e+06 2.160030e+06 2.517
31 irregular 3 75 275 53 2 0.500 faster 0 2.160032e+06 2.160035e+06 2.946
31 irregular 3 76 276 68 2 0.463 faster 1 2.160036e+06 2.160039e+06 2.764
31 irregular 3 77 277 53 2.500000e+00 0.581 faster 0 2.160041e+06 2.160044e+06 3.687
31 irregular 3 78 278 52 2.500000e+00 0.593 faster 0 2.160046e+06 2.160049e+06 3.244
31 irregular 3 79 279 51 2 0.318 faster 0 2.160051e+06 2.160054e+06 2.775
31 irregular 3 80 280 50 1 0.233 faster 0 2.160055e+06 2.160057e+06 1.805
31 irregular 3 81 281 71 1.500000e+00 0.324 faster 1 2.160058e+06 2.160060e+06 2.249
31 irregular 3 82 282 71 1.500000e+00 0.545 faster 1 2.160062e+06 2.160065e+06 2.360
31 irregular 3 83 283 70 3 0.228 faster 1 2.160066e+06 2.160070e+06 3.898
31 irregular 3 84 284 70 2 0.211 slower 0 2.160071e+06 2.160074e+06 3.062
31 irregular 3 85 285 71 2.500000e+00 0.279 faster 1 2.160075e+06 2.160079e+06 3.368
31 irregular 3 86 286 50 3 0.142 slower 1 2.160080e+06 2.160084e+06 3.763
31 irregular 3 87 287 70 1.500000e+00 0.528 faster 1 2.160086e+06 2.160088e+06 2.343
31 irregular 3 88 288 69 3 0.413 faster 1 2.160090e+06 2.160093e+06 3.619
31 irregular 3 89 289 51 1.500000e+00 0.517 slower 1 2.160095e+06 2.160097e+06 2.264
31 irregular 3 90 290 52 2 0.404 faster 0 2.160098e+06 2.160101e+06 2.798
31 irregular 3 91 291 51 2 0.325 slower 1 2.160102e+06 2.160105e+06 2.980
31 irregular 3 92 292 51 3 0.346 faster 0 2.160106e+06 2.160110e+06 3.758
31 irregular 3 93 293 70 2.500000e+00 0.397 faster 1 2.160112e+06 2.160116e+06 3.480
31 irregular 3 94 294 69 1 0.344 faster 1 2.160117e+06 2.160118e+06 1.722
31 irregular 3 95 295 51 1.500000e+00 0.138 slower 1 2.160119e+06 2.160122e+06 2.557
31 irregular 3 96 296 52 3 0.449 slower 1 2.160123e+06 2.160127e+06 3.723
31 irregular 3 97 297 52 2.500000e+00 0.111 faster 0 2.160128e+06 2.160132e+06 3.278
31 irregular 3 98 298 69 1 0.288 faster 1 2.160133e+06 2.160135e+06 2.104
31 irregular 3 99 299 68 1 0.325 slower 0 2.160136e+06 2.160138e+06 2.053
31 irregular 3 100 300 69 2 0.584 faster 1 2.160140e+06 2.160142e+06 2.763
31 regular 4 1 301 51 1.500000e+00 0.354 faster 0 2.160225e+06 2.160229e+06 3.115
31 regular 4 2 302 50 1.500000e+00 0.192 slower 1 2.160233e+06 2.160235e+06 2.935
31 regular 4 3 303 69 1.500000e+00 0.481 faster 1 2.160237e+06 2.160240e+06 2.694
31 regular 4 4 304 51 1.500000e+00 0.425 slower 1 2.160243e+06 2.160245e+06 2.406
31 regular 4 5 305 68 1.500000e+00 0.204 faster 1 2.160247e+06 2.160249e+06 2.119
31 regular 4 6 306 52 1.500000e+00 0.123 faster 0 2.160250e+06 2.160253e+06 2.755
31 regular 4 7 307 51 1.500000e+00 0.218 faster 0 2.160254e+06 2.160257e+06 2.434
31 regular 4 8 308 50 1.500000e+00 0.545 faster 0 2.160258e+06 2.160261e+06 2.633
31 regular 4 9 309 71 1.500000e+00 0.389 faster 1 2.160262e+06 2.160264e+06 2.150
31 regular 4 10 310 70 1.500000e+00 0.312 faster 1 2.160265e+06 2.160268e+06 2.233
31 regular 4 11 311 50 1.500000e+00 0.493 faster 0 2.160269e+06 2.160271e+06 2.359
31 regular 4 12 312 49 1.500000e+00 0.266 faster 0 2.160273e+06 2.160275e+06 2.280
31 regular 4 13 313 72 1.500000e+00 0.136 faster 1 2.160276e+06 2.160278e+06 2.102
31 regular 4 14 314 49 1.500000e+00 0.582 faster 0 2.160279e+06 2.160282e+06 2.610
31 regular 4 15 315 48 1.500000e+00 0.236 faster 0 2.160283e+06 2.160286e+06 2.600
31 regular 4 16 316 73 1.500000e+00 0.364 faster 1 2.160287e+06 2.160289e+06 2.112
31 regular 4 17 317 47 1.500000e+00 0.142 faster 0 2.160290e+06 2.160293e+06 2.319
31 regular 4 18 318 74 1.500000e+00 0.288 faster 1 2.160294e+06 2.160296e+06 2.280
31 regular 4 19 319 73 1.500000e+00 0.239 faster 1 2.160297e+06 2.160299e+06 2.164
31 regular 4 20 320 47 1.500000e+00 0.244 slower 1 2.160300e+06 2.160302e+06 1.994
31 regular 4 21 321 48 1.500000e+00 0.251 slower 1 2.160304e+06 2.160306e+06 2.131
31 regular 4 22 322 48 1.500000e+00 0.105 slower 1 2.160306e+06 2.160308e+06 2.101
31 regular 4 23 323 49 1.500000e+00 0.396 slower 1 2.160310e+06 2.160312e+06 2.357
31 regular 4 24 324 71 1.500000e+00 0.486 faster 1 2.160314e+06 2.160316e+06 2.035
31 regular 4 25 325 50 1.500000e+00 0.290 slower 1 2.160317e+06 2.160319e+06 2.157
31 regular 4 26 326 70 1.500000e+00 0.201 faster 1 2.160320e+06 2.160322e+06 2.042
31 regular 4 27 327 69 1.500000e+00 0.327 faster 1 2.160323e+06 2.160325e+06 2.161
31 regular 4 28 328 51 1.500000e+00 0.314 slower 1 2.160326e+06 2.160329e+06 2.321
31 regular 4 29 329 52 1.500000e+00 0.367 faster 0 2.160330e+06 2.160332e+06 2.189
31 regular 4 30 330 69 1.500000e+00 0.314 faster 1 2.160333e+06 2.160335e+06 2.227
31 regular 4 31 331 69 1.500000e+00 0.113 faster 1 2.160336e+06 2.160338e+06 2.316
31 regular 4 32 332 68 1.500000e+00 0.155 faster 1 2.160339e+06 2.160342e+06 2.500
31 regular 4 33 333 52 1.500000e+00 0.226 faster 0 2.160343e+06 2.160346e+06 2.438
31 regular 4 34 334 69 1.500000e+00 0.113 faster 1 2.160346e+06 2.160349e+06 2.322
31 regular 4 35 335 52 1.500000e+00 0.150 faster 0 2.160349e+06 2.160353e+06 3.347
31 regular 4 36 336 69 1.500000e+00 0.257 slower 0 2.160354e+06 2.160356e+06 2.125
31 regular 4 37 337 70 1.500000e+00 0.580 faster 1 2.160357e+06 2.160359e+06 2.146
31 regular 4 38 338 50 1.500000e+00 0.368 slower 1 2.160361e+06 2.160363e+06 2.247
31 regular 4 39 339 51 1.500000e+00 0.401 slower 1 2.160364e+06 2.160367e+06 2.426
31 regular 4 40 340 51 1.500000e+00 0.425 faster 0 2.160368e+06 2.160370e+06 2.293
31 regular 4 41 341 70 1.500000e+00 0.340 faster 1 2.160371e+06 2.160374e+06 2.400
31 regular 4 42 342 51 1.500000e+00 0.532 slower 1 2.160375e+06 2.160377e+06 2.192
31 regular 4 43 343 69 1.500000e+00 0.420 faster 1 2.160379e+06 2.160381e+06 2.121
31 regular 4 44 344 52 1.500000e+00 0.599 slower 1 2.160383e+06 2.160385e+06 2.161
31 regular 4 45 345 68 1.500000e+00 0.499 faster 1 2.160386e+06 2.160388e+06 2.087
31 regular 4 46 346 53 1.500000e+00 0.595 faster 0 2.160390e+06 2.160392e+06 2.420
31 regular 4 47 347 68 1.500000e+00 0.234 faster 1 2.160393e+06 2.160395e+06 2.403
31 regular 4 48 348 52 1.500000e+00 0.166 slower 1 2.160396e+06 2.160399e+06 2.655
31 regular 4 49 349 67 1.500000e+00 0.460 faster 1 2.160400e+06 2.160402e+06 1.999
31 regular 4 50 350 53 1.500000e+00 0.253 slower 1 2.160404e+06 2.160406e+06 2.522
31 regular 4 51 351 54 1.500000e+00 0.387 slower 1 2.160407e+06 2.160410e+06 2.204
31 regular 4 52 352 54 1.500000e+00 0.182 faster 0 2.160410e+06 2.160413e+06 2.194
31 regular 4 53 353 67 1.500000e+00 0.226 slower 0 2.160414e+06 2.160416e+06 2.313
31 regular 4 54 354 52 1.500000e+00 0.266 slower 1 2.160417e+06 2.160419e+06 2.310
31 regular 4 55 355 67 1.500000e+00 0.338 slower 0 2.160421e+06 2.160423e+06 2.227
31 regular 4 56 356 68 1.500000e+00 0.430 faster 1 2.160425e+06 2.160427e+06 2.267
31 regular 4 57 357 68 1.500000e+00 0.308 slower 0 2.160428e+06 2.160430e+06 2.356
31 regular 4 58 358 51 1.500000e+00 0.271 slower 1 2.160432e+06 2.160434e+06 2.381
31 regular 4 59 359 52 1.500000e+00 0.226 slower 1 2.160436e+06 2.160438e+06 2.191
31 regular 4 60 360 52 1.500000e+00 0.102 slower 1 2.160439e+06 2.160442e+06 2.382
31 regular 4 61 361 67 1.500000e+00 0.275 slower 0 2.160443e+06 2.160445e+06 2.357
31 regular 4 62 362 68 1.500000e+00 0.389 faster 1 2.160447e+06 2.160449e+06 2.274
31 regular 4 63 363 68 1.500000e+00 0.434 slower 0 2.160450e+06 2.160453e+06 2.411
31 regular 4 64 364 51 1.500000e+00 0.588 faster 0 2.160454e+06 2.160456e+06 2.202
31 regular 4 65 365 50 1.500000e+00 0.265 slower 1 2.160458e+06 2.160460e+06 2.247
31 regular 4 66 366 51 1.500000e+00 0.571 faster 0 2.160462e+06 2.160464e+06 2.416
31 regular 4 67 367 50 1.500000e+00 0.141 slower 1 2.160465e+06 2.160467e+06 2.231
31 regular 4 68 368 70 1.500000e+00 0.396 faster 1 2.160469e+06 2.160471e+06 2.289
31 regular 4 69 369 69 1.500000e+00 0.214 faster 1 2.160472e+06 2.160475e+06 2.568
31 regular 4 70 370 51 1.500000e+00 0.585 faster 0 2.160477e+06 2.160479e+06 2.283
31 regular 4 71 371 70 1.500000e+00 0.396 slower 0 2.160480e+06 2.160483e+06 2.352
31 regular 4 72 372 49 1.500000e+00 0.358 slower 1 2.160484e+06 2.160486e+06 2.182
31 regular 4 73 373 70 1.500000e+00 0.591 faster 1 2.160488e+06 2.160490e+06 2.371
31 regular 4 74 374 70 1.500000e+00 0.248 slower 0 2.160491e+06 2.160494e+06 2.443
31 regular 4 75 375 49 1.500000e+00 0.216 slower 1 2.160495e+06 2.160497e+06 2.093
31 regular 4 76 376 50 1.500000e+00 0.247 faster 0 2.160498e+06 2.160500e+06 2.239
31 regular 4 77 377 49 1.500000e+00 0.156 slower 1 2.160501e+06 2.160504e+06 2.268
31 regular 4 78 378 71 1.500000e+00 0.366 faster 1 2.160505e+06 2.160507e+06 2.357
31 regular 4 79 379 50 1.500000e+00 0.165 slower 1 2.160508e+06 2.160510e+06 2.263
31 regular 4 80 380 70 1.500000e+00 0.596 faster 1 2.160512e+06 2.160514e+06 2.165
31 regular 4 81 381 51 1.500000e+00 0.428 slower 1 2.160515e+06 2.160517e+06 2.234
31 regular 4 82 382 51 1.500000e+00 0.538 faster 0 2.160518e+06 2.160521e+06 2.344
31 regular 4 83 383 70 1.500000e+00 0.195 slower 0 2.160522e+06 2.160524e+06 2.331
31 regular 4 84 384 71 1.500000e+00 0.401 faster 1 2.160525e+06 2.160528e+06 2.263
31 regular 4 85 385 70 1.500000e+00 0.106 slower 0 2.160528e+06 2.160531e+06 2.278
31 regular 4 86 386 71 1.500000e+00 0.518 faster 1 2.160532e+06 2.160534e+06 2.113
31 regular 4 87 387 49 1.500000e+00 0.498 slower 1 2.160536e+06 2.160538e+06 2.229
31 regular 4 88 388 70 1.500000e+00 0.123 faster 1 2.160539e+06 2.160541e+06 2.028
31 regular 4 89 389 70 1.500000e+00 0.414 faster 1 2.160542e+06 2.160544e+06 2.048
31 regular 4 90 390 51 1.500000e+00 0.400 faster 0 2.160545e+06 2.160547e+06 2.029
31 regular 4 91 391 70 1.500000e+00 0.402 slower 0 2.160548e+06 2.160551e+06 2.285
31 regular 4 92 392 71 1.500000e+00 0.257 faster 1 2.160552e+06 2.160554e+06 2.084
31 regular 4 93 393 71 1.500000e+00 0.133 slower 0 2.160555e+06 2.160557e+06 2.013
31 regular 4 94 394 48 1.500000e+00 0.586 faster 0 2.160558e+06 2.160560e+06 1.993
31 regular 4 95 395 73 1.500000e+00 0.279 faster 1 2.160562e+06 2.160564e+06 2.496
31 regular 4 96 396 72 1.500000e+00 0.504 faster 1 2.160566e+06 2.160568e+06 2.157
31 regular 4 97 397 48 1.500000e+00 0.568 faster 0 2.160569e+06 2.160572e+06 2.587
31 regular 4 98 398 73 1.500000e+00 0.284 faster 1 2.160573e+06 2.160576e+06 2.833
31 regular 4 99 399 72 1.500000e+00 0.208 faster 1 2.160577e+06 2.160579e+06 2.119
31 regular 4 100 400 72 1.500000e+00 0.488 faster 1 2.160580e+06 2.160582e+06 2.316
31 irregular 5 1 401 49 2 0.260 faster 0 2.160597e+06 2.160599e+06 2.764
31 irregular 5 2 402 48 1.500000e+00 0.598 faster 0 2.160605e+06 2.160608e+06 2.370
31 irregular 5 3 403 73 2 0.448 faster 1 2.160609e+06 2.160612e+06 2.731
31 irregular 5 4 404 73 3 0.267 faster 1 2.160613e+06 2.160617e+06 3.612
31 irregular 5 5 405 48 2.500000e+00 0.536 slower 1 2.160618e+06 2.160621e+06 3.152
31 irregular 5 6 406 72 1 0.308 faster 1 2.160623e+06 2.160624e+06 1.559
31 irregular 5 7 407 49 3 0.489 faster 0 2.160626e+06 2.160630e+06 4.675
31 irregular 5 8 408 72 2.500000e+00 0.462 faster 1 2.160632e+06 2.160635e+06 3.150
31 irregular 5 9 409 48 1 0.365 slower 1 2.160636e+06 2.160638e+06 1.845
31 irregular 5 10 410 71 2 0.242 faster 1 2.160639e+06 2.160642e+06 2.691
31 irregular 5 11 411 49 1 0.164 slower 1 2.160644e+06 2.160646e+06 1.807
31 irregular 5 12 412 70 1 0.560 faster 1 2.160647e+06 2.160649e+06 1.686
31 irregular 5 13 413 50 1.500000e+00 0.309 slower 1 2.160651e+06 2.160653e+06 2.386
31 irregular 5 14 414 69 2 0.505 faster 1 2.160655e+06 2.160658e+06 2.543
31 irregular 5 15 415 69 2.500000e+00 0.558 faster 1 2.160659e+06 2.160663e+06 3.560
31 irregular 5 16 416 52 1 0.263 slower 1 2.160664e+06 2.160666e+06 1.713
31 irregular 5 17 417 68 2.500000e+00 0.156 faster 1 2.160667e+06 2.160670e+06 3.187
31 irregular 5 18 418 53 2 0.463 faster 0 2.160671e+06 2.160674e+06 2.686
31 irregular 5 19 419 68 1 0.143 faster 1 2.160675e+06 2.160677e+06 1.856
31 irregular 5 20 420 52 2.500000e+00 0.391 slower 1 2.160678e+06 2.160682e+06 3.327
31 irregular 5 21 421 67 2 0.473 faster 1 2.160683e+06 2.160686e+06 2.697
31 irregular 5 22 422 67 1.500000e+00 0.468 slower 0 2.160687e+06 2.160689e+06 2.295
31 irregular 5 23 423 52 1 0.554 faster 0 2.160691e+06 2.160693e+06 1.712
31 irregular 5 24 424 69 1 0.165 slower 0 2.160693e+06 2.160695e+06 1.758
31 irregular 5 25 425 70 1 0.231 faster 1 2.160696e+06 2.160698e+06 1.772
31 irregular 5 26 426 69 1.500000e+00 0.317 slower 0 2.160699e+06 2.160701e+06 2.174
31 irregular 5 27 427 70 1 0.523 faster 1 2.160703e+06 2.160705e+06 1.700
31 irregular 5 28 428 70 2 0.261 faster 1 2.160706e+06 2.160709e+06 3.468
31 irregular 5 29 429 69 2.500000e+00 0.493 faster 1 2.160711e+06 2.160714e+06 3.534
31 irregular 5 30 430 69 1.500000e+00 0.571 slower 0 2.160716e+06 2.160718e+06 2.402
31 irregular 5 31 431 70 1 0.505 slower 0 2.160720e+06 2.160721e+06 1.602
31 irregular 5 32 432 71 2.500000e+00 0.528 faster 1 2.160723e+06 2.160726e+06 3.300
31 irregular 5 33 433 70 1 0.478 faster 1 2.160727e+06 2.160730e+06 2.459
31 irregular 5 34 434 50 2 0.337 slower 1 2.160731e+06 2.160734e+06 2.791
31 irregular 5 35 435 69 3 0.457 faster 1 2.160735e+06 2.160739e+06 3.737
31 irregular 5 36 436 69 3 0.477 slower 0 2.160741e+06 2.160745e+06 4.061
31 irregular 5 37 437 50 2 0.405 slower 1 2.160746e+06 2.160749e+06 2.757
31 irregular 5 38 438 51 2 0.164 slower 1 2.160750e+06 2.160752e+06 2.513
31 irregular 5 39 439 69 1.500000e+00 0.280 faster 1 2.160753e+06 2.160755e+06 2.269
31 irregular 5 40 440 68 2 0.252 faster 1 2.160757e+06 2.160760e+06 2.597
31 irregular 5 41 441 52 1.500000e+00 0.541 faster 0 2.160761e+06 2.160764e+06 2.295
31 irregular 5 42 442 51 2.500000e+00 0.237 slower 1 2.160765e+06 2.160768e+06 3.399
31 irregular 5 43 443 68 1.500000e+00 0.198 faster 1 2.160770e+06 2.160772e+06 2.175
31 irregular 5 44 444 68 2 0.385 slower 0 2.160774e+06 2.160776e+06 2.568
31 irregular 5 45 445 51 1 0.558 faster 0 2.160778e+06 2.160780e+06 2.140
31 irregular 5 46 446 70 1.500000e+00 0.473 faster 1 2.160781e+06 2.160784e+06 2.560
31 irregular 5 47 447 51 2 0.316 slower 1 2.160785e+06 2.160788e+06 3.128
31 irregular 5 48 448 51 3 0.245 slower 1 2.160789e+06 2.160793e+06 3.903
31 irregular 5 49 449 68 1 0.323 slower 0 2.160795e+06 2.160796e+06 1.768
31 irregular 5 50 450 69 2.500000e+00 0.403 faster 1 2.160798e+06 2.160801e+06 3.151
31 irregular 5 51 451 51 2.500000e+00 0.276 slower 1 2.160802e+06 2.160806e+06 3.384
31 irregular 5 52 452 52 2.500000e+00 0.438 faster 0 2.160808e+06 2.160811e+06 3.117
31 irregular 5 53 453 69 2.500000e+00 0.201 slower 0 2.160812e+06 2.160816e+06 3.641
31 irregular 5 54 454 50 2 0.152 faster 0 2.160817e+06 2.160820e+06 2.648
31 irregular 5 55 455 71 2.500000e+00 0.187 slower 0 2.160821e+06 2.160824e+06 2.912
31 irregular 5 56 456 72 2.500000e+00 0.422 slower 0 2.160826e+06 2.160829e+06 3.471
31 irregular 5 57 457 73 2 0.545 faster 1 2.160831e+06 2.160834e+06 2.586
31 irregular 5 58 458 73 2.500000e+00 0.322 slower 0 2.160835e+06 2.160839e+06 3.255
31 irregular 5 59 459 46 1 0.579 slower 1 2.160840e+06 2.160843e+06 2.732
31 irregular 5 60 460 47 3 0.327 slower 1 2.160844e+06 2.160848e+06 3.666
31 irregular 5 61 461 73 3 0.411 faster 1 2.160849e+06 2.160853e+06 3.865
31 irregular 5 62 462 48 1.500000e+00 0.291 slower 1 2.160855e+06 2.160858e+06 2.291
31 irregular 5 63 463 48 1 0.389 slower 1 2.160859e+06 2.160861e+06 1.709
31 irregular 5 64 464 49 1.500000e+00 0.300 slower 1 2.160862e+06 2.160864e+06 2.306
31 irregular 5 65 465 71 1.500000e+00 0.170 slower 0 2.160865e+06 2.160868e+06 2.558
31 irregular 5 66 466 72 1.500000e+00 0.457 faster 1 2.160870e+06 2.160872e+06 2.177
31 irregular 5 67 467 71 2 0.514 slower 0 2.160873e+06 2.160876e+06 2.897
31 irregular 5 68 468 72 1.500000e+00 0.498 faster 1 2.160878e+06 2.160881e+06 2.268
31 irregular 5 69 469 48 2 0.218 slower 1 2.160882e+06 2.160885e+06 2.999
31 irregular 5 70 470 49 1.500000e+00 0.424 faster 0 2.160887e+06 2.160889e+06 2.047
31 irregular 5 71 471 48 1 0.114 slower 1 2.160890e+06 2.160892e+06 1.947
31 irregular 5 72 472 48 3 0.346 faster 0 2.160893e+06 2.160897e+06 3.585
31 irregular 5 73 473 47 3 0.180 slower 1 2.160898e+06 2.160902e+06 3.810
31 irregular 5 74 474 72 3 0.331 faster 1 2.160904e+06 2.160907e+06 3.605
31 irregular 5 75 475 48 3 0.408 slower 1 2.160908e+06 2.160912e+06 3.974
31 irregular 5 76 476 71 3 0.220 faster 1 2.160914e+06 2.160918e+06 3.759
31 irregular 5 77 477 71 2 0.171 slower 0 2.160919e+06 2.160922e+06 3.373
31 irregular 5 78 478 72 3 0.120 faster 1 2.160924e+06 2.160927e+06 3.714
31 irregular 5 79 479 49 3 0.516 slower 1 2.160930e+06 2.160934e+06 4.072
31 irregular 5 80 480 49 2.500000e+00 0.239 slower 1 2.160935e+06 2.160939e+06 4.066
31 irregular 5 81 481 50 3 0.176 slower 1 2.160941e+06 2.160945e+06 3.910
31 irregular 5 82 482 50 1.500000e+00 0.350 faster 0 2.160946e+06 2.160948e+06 2.266
31 irregular 5 83 483 71 1.500000e+00 0.392 faster 1 2.160950e+06 2.160952e+06 2.457
31 irregular 5 84 484 50 2.500000e+00 0.143 slower 1 2.160954e+06 2.160957e+06 3.273
31 irregular 5 85 485 70 3 0.588 faster 1 2.160959e+06 2.160962e+06 3.611
31 irregular 5 86 486 69 1 0.406 faster 1 2.160964e+06 2.160966e+06 1.954
31 irregular 5 87 487 51 2 0.571 slower 1 2.160967e+06 2.160970e+06 2.788
31 irregular 5 88 488 52 3 0.226 faster 0 2.160971e+06 2.160975e+06 3.725
31 irregular 5 89 489 51 3 0.430 slower 1 2.160976e+06 2.160980e+06 3.808
31 irregular 5 90 490 51 1 0.305 faster 0 2.160982e+06 2.160983e+06 1.774
31 irregular 5 91 491 50 1.500000e+00 0.253 slower 1 2.160985e+06 2.160988e+06 2.436
31 irregular 5 92 492 51 2.500000e+00 0.305 faster 0 2.160989e+06 2.160992e+06 3.127
31 irregular 5 93 493 50 1.500000e+00 0.327 slower 1 2.160994e+06 2.160996e+06 2.281
31 irregular 5 94 494 70 3 0.354 faster 1 2.160998e+06 2.161001e+06 3.513
31 irregular 5 95 495 51 2.500000e+00 0.344 faster 0 2.161002e+06 2.161006e+06 3.353
31 irregular 5 96 496 50 2.500000e+00 0.147 faster 0 2.161007e+06 2.161011e+06 3.757
31 irregular 5 97 497 49 1.500000e+00 0.416 slower 1 2.161012e+06 2.161014e+06 2.293
31 irregular 5 98 498 49 2 0.265 faster 0 2.161015e+06 2.161018e+06 2.625
31 irregular 5 99 499 72 3 0.177 faster 1 2.161019e+06 2.161023e+06 3.735
31 irregular 5 100 500 49 1 0.196 slower 1 2.161025e+06 2.161027e+06 2.642
31 regular 6 1 501 68 2 0.580 faster 1 4.902207e+04 4.902521e+04 3.140
31 regular 6 2 502 68 2 0.475 slower 0 4.902672e+04 4.902991e+04 3.189
31 regular 6 3 503 50 2 0.504 slower 1 4.903141e+04 4.903421e+04 2.805
31 regular 6 4 504 68 2 0.275 faster 1 4.903551e+04 4.903812e+04 2.612
31 regular 6 5 505 68 2 0.323 slower 0 4.903948e+04 4.904230e+04 2.817
31 regular 6 6 506 50 2 0.271 slower 1 4.904359e+04 4.904630e+04 2.703
31 regular 6 7 507 52 2 0.426 slower 1 4.904772e+04 4.905042e+04 2.706
31 regular 6 8 508 52 2 0.522 faster 0 4.905189e+04 4.905450e+04 2.616
31 regular 6 9 509 69 2 0.377 faster 1 4.905591e+04 4.905855e+04 2.642
31 regular 6 10 510 52 2 0.274 faster 0 4.905991e+04 4.906266e+04 2.757
31 regular 6 11 511 51 2 0.251 slower 1 4.906393e+04 4.906665e+04 2.718
31 regular 6 12 512 51 2 0.400 faster 0 4.906803e+04 4.907066e+04 2.634
31 regular 6 13 513 50 2 0.339 slower 1 4.907191e+04 4.907465e+04 2.742
31 regular 6 14 514 51 2 0.511 slower 1 4.907615e+04 4.907889e+04 2.740
31 regular 6 15 515 69 2 0.581 faster 1 4.908045e+04 4.908316e+04 2.706
31 regular 6 16 516 68 2 0.524 faster 1 4.908479e+04 4.908732e+04 2.529
31 regular 6 17 517 68 2 0.168 faster 1 4.908847e+04 4.909100e+04 2.527
31 regular 6 18 518 53 2 0.146 faster 0 4.909216e+04 4.909474e+04 2.585
31 regular 6 19 519 68 2 0.434 slower 0 4.909622e+04 4.909897e+04 2.748
31 regular 6 20 520 69 2 0.267 faster 1 4.910027e+04 4.910286e+04 2.588
31 regular 6 21 521 51 2 0.217 slower 1 4.910405e+04 4.910681e+04 2.757
31 regular 6 22 522 68 2 0.198 faster 1 4.910801e+04 4.911052e+04 2.513
31 regular 6 23 523 68 2 0.575 slower 0 4.911220e+04 4.911495e+04 2.753
31 regular 6 24 524 51 2 0.207 slower 1 4.911620e+04 4.911911e+04 2.913
31 regular 6 25 525 68 2 0.106 faster 1 4.912024e+04 4.912279e+04 2.548
31 regular 6 26 526 52 2 0.146 slower 1 4.912402e+04 4.912674e+04 2.728
31 regular 6 27 527 67 2 0.584 slower 0 4.912832e+04 4.913100e+04 2.676
31 regular 6 28 528 68 2 0.316 slower 0 4.913232e+04 4.913561e+04 3.287
31 regular 6 29 529 69 2 0.391 faster 1 4.913712e+04 4.913977e+04 2.650
31 regular 6 30 530 51 2 0.119 slower 1 4.914100e+04 4.914362e+04 2.618
31 regular 6 31 531 68 2 0.596 slower 0 4.914521e+04 4.914815e+04 2.941
31 regular 6 32 532 51 2 0.441 slower 1 4.914970e+04 4.915238e+04 2.676
31 regular 6 33 533 51 2 0.161 slower 1 4.915354e+04 4.915628e+04 2.736
31 regular 6 34 534 68 2 0.515 faster 1 4.915784e+04 4.916028e+04 2.439
31 regular 6 35 535 52 2 0.300 slower 1 4.916123e+04 4.916377e+04 2.539
31 regular 6 36 536 53 2 0.595 faster 0 4.916500e+04 4.916750e+04 2.496
31 regular 6 37 537 52 2 0.566 slower 1 4.916915e+04 4.917193e+04 2.781
31 regular 6 38 538 68 2 0.344 slower 0 4.917291e+04 4.917546e+04 2.552
31 regular 6 39 539 51 2 0.585 faster 0 4.917721e+04 4.917982e+04 2.605
31 regular 6 40 540 50 2 0.267 faster 0 4.918114e+04 4.918396e+04 2.821
31 regular 6 41 541 49 2 0.241 slower 1 4.918538e+04 4.918796e+04 2.575
31 regular 6 42 542 50 2 0.505 slower 1 4.918941e+04 4.919205e+04 2.641
31 regular 6 43 543 70 2 0.219 faster 1 4.919330e+04 4.919594e+04 2.646
31 regular 6 44 544 69 2 0.297 faster 1 4.919726e+04 4.920001e+04 2.746
31 regular 6 45 545 69 2 0.139 faster 1 4.920110e+04 4.920370e+04 2.601
31 regular 6 46 546 68 2 0.186 faster 1 4.920490e+04 4.920751e+04 2.607
31 regular 6 47 547 68 2 0.118 faster 1 4.920865e+04 4.921137e+04 2.715
31 regular 6 48 548 67 2 0.326 slower 0 4.921275e+04 4.921524e+04 2.488
31 regular 6 49 549 68 2 0.336 faster 1 4.921668e+04 4.921921e+04 2.525
31 regular 6 50 550 68 2 0.124 faster 1 4.922038e+04 4.922321e+04 2.824
31 regular 6 51 551 67 2 0.161 faster 1 4.922443e+04 4.922732e+04 2.885
31 regular 6 52 552 67 2 0.287 faster 1 4.922867e+04 4.923185e+04 3.176
31 regular 6 53 553 66 2 0.584 slower 0 4.923326e+04 4.923602e+04 2.759
31 regular 6 54 554 53 2 0.401 faster 0 4.923742e+04 4.924002e+04 2.600
31 regular 6 55 555 52 2 0.484 faster 0 4.924152e+04 4.924429e+04 2.777
31 regular 6 56 556 51 2 0.161 slower 1 4.924548e+04 4.924815e+04 2.669
31 regular 6 57 557 51 2 0.131 slower 1 4.924929e+04 4.925199e+04 2.704
31 regular 6 58 558 52 2 0.580 faster 0 4.925347e+04 4.925613e+04 2.667
31 regular 6 59 559 69 2 0.381 slower 0 4.925757e+04 4.926025e+04 2.678
31 regular 6 60 560 50 2 0.311 faster 0 4.926162e+04 4.926422e+04 2.592
31 regular 6 61 561 49 2 0.146 slower 1 4.926543e+04 4.926815e+04 2.717
31 regular 6 62 562 49 2 0.525 slower 1 4.926968e+04 4.927258e+04 2.899
31 regular 6 63 563 50 2 0.239 slower 1 4.927385e+04 4.927638e+04 2.526
31 regular 6 64 564 50 2 0.576 slower 1 4.927798e+04 4.928057e+04 2.587
31 regular 6 65 565 51 2 0.117 slower 1 4.928175e+04 4.928428e+04 2.529
31 regular 6 66 566 51 2 0.533 slower 1 4.928580e+04 4.928847e+04 2.668
31 regular 6 67 567 68 2 0.517 slower 0 4.928995e+04 4.929273e+04 2.773
31 regular 6 68 568 51 2 0.263 faster 0 4.929401e+04 4.929655e+04 2.545
31 regular 6 69 569 50 2 0.209 faster 0 4.929785e+04 4.930057e+04 2.722
31 regular 6 70 570 49 2 0.526 faster 0 4.930213e+04 4.930487e+04 2.743
31 regular 6 71 571 48 2 0.318 slower 1 4.930622e+04 4.930873e+04 2.504
31 regular 6 72 572 72 2 0.217 faster 1 4.930995e+04 4.931254e+04 2.585
31 regular 6 73 573 49 2 0.389 slower 1 4.931389e+04 4.931646e+04 2.566
31 regular 6 74 574 71 2 0.292 faster 1 4.931775e+04 4.932034e+04 2.589
31 regular 6 75 575 50 2 0.600 slower 1 4.932193e+04 4.932450e+04 2.575
31 regular 6 76 576 70 2 0.227 faster 1 4.932574e+04 4.932831e+04 2.567
31 regular 6 77 577 51 2 0.439 faster 0 4.932976e+04 4.933252e+04 2.758
31 regular 6 78 578 50 2 0.358 faster 0 4.933393e+04 4.933698e+04 3.048
31 regular 6 79 579 71 2 0.573 faster 1 4.933857e+04 4.934124e+04 2.668
31 regular 6 80 580 71 2 0.202 faster 1 4.934247e+04 4.934524e+04 2.766
31 regular 6 81 581 70 2 0.450 faster 1 4.934672e+04 4.934935e+04 2.630
31 regular 6 82 582 70 2 0.326 slower 0 4.935073e+04 4.935346e+04 2.732
31 regular 6 83 583 71 2 0.368 faster 1 4.935491e+04 4.935761e+04 2.693
31 regular 6 84 584 70 2 0.258 faster 1 4.935892e+04 4.936199e+04 3.068
31 regular 6 85 585 50 2 0.204 slower 1 4.936322e+04 4.936578e+04 2.563
31 regular 6 86 586 69 2 0.209 slower 0 4.936663e+04 4.936938e+04 2.754
31 regular 6 87 587 70 2 0.471 faster 1 4.937093e+04 4.937361e+04 2.673
31 regular 6 88 588 70 2 0.150 slower 0 4.937478e+04 4.937770e+04 2.924
31 regular 6 89 589 49 2 0.262 slower 1 4.937903e+04 4.938178e+04 2.750
31 regular 6 90 590 50 2 0.321 slower 1 4.938313e+04 4.938575e+04 2.621
31 regular 6 91 591 70 2 0.271 faster 1 4.938715e+04 4.938991e+04 2.764
31 regular 6 92 592 51 2 0.442 slower 1 4.939148e+04 4.939413e+04 2.657
31 regular 6 93 593 69 2 0.413 slower 0 4.939519e+04 4.939786e+04 2.672
31 regular 6 94 594 70 2 0.474 faster 1 4.939937e+04 4.940191e+04 2.540
31 regular 6 95 595 69 2 0.553 faster 1 4.940310e+04 4.940594e+04 2.846
31 regular 6 96 596 51 2 0.586 faster 0 4.940743e+04 4.941012e+04 2.686
31 regular 6 97 597 50 2 0.373 slower 1 4.941149e+04 4.941401e+04 2.516
31 regular 6 98 598 69 2 0.384 faster 1 4.941546e+04 4.941805e+04 2.598
31 regular 6 99 599 69 2 0.139 faster 1 4.941926e+04 4.942189e+04 2.635
31 regular 6 100 600 52 2 0.373 slower 1 4.942332e+04 4.942591e+04 2.589
31 irregular 7 1 601 52 2.500000e+00 0.568 slower 1 4.944116e+04 4.944433e+04 3.168
31 irregular 7 2 602 53 2.500000e+00 0.338 slower 1 4.944587e+04 4.944890e+04 3.037
31 irregular 7 3 603 67 1.500000e+00 0.245 faster 1 4.945026e+04 4.945246e+04 2.194
31 irregular 7 4 604 54 1 0.143 slower 1 4.945365e+04 4.945580e+04 2.146
31 irregular 7 5 605 54 2 0.477 slower 1 4.945729e+04 4.946034e+04 3.051
31 irregular 7 6 606 65 3 0.268 faster 1 4.946169e+04 4.946601e+04 4.315
31 irregular 7 7 607 65 1.500000e+00 0.436 slower 0 4.946752e+04 4.946975e+04 2.228
31 irregular 7 8 608 66 1.500000e+00 0.272 slower 0 4.947112e+04 4.947369e+04 2.564
31 irregular 7 9 609 67 3 0.172 faster 1 4.947500e+04 4.947863e+04 3.632
31 irregular 7 10 610 54 3 0.251 faster 0 4.947996e+04 4.948364e+04 3.676
31 irregular 7 11 611 67 1 0.108 slower 0 4.948481e+04 4.948669e+04 1.883
31 irregular 7 12 612 52 2.500000e+00 0.335 faster 0 4.948810e+04 4.949138e+04 3.279
31 irregular 7 13 613 69 1 0.296 faster 1 4.949281e+04 4.949444e+04 1.629
31 irregular 7 14 614 69 1 0.402 faster 1 4.949590e+04 4.949748e+04 1.584
31 irregular 7 15 615 68 2.500000e+00 0.363 faster 1 4.949890e+04 4.950199e+04 3.091
31 irregular 7 16 616 52 1.500000e+00 0.302 slower 1 4.950339e+04 4.950554e+04 2.153
31 irregular 7 17 617 53 3 0.119 faster 0 4.950675e+04 4.951030e+04 3.541
31 irregular 7 18 618 52 3 0.156 slower 1 4.951147e+04 4.951519e+04 3.719
31 irregular 7 19 619 68 1.500000e+00 0.292 faster 1 4.951648e+04 4.951861e+04 2.136
31 irregular 7 20 620 53 2 0.274 faster 0 4.951989e+04 4.952258e+04 2.693
31 irregular 7 21 621 52 1 0.496 slower 1 4.952411e+04 4.952575e+04 1.643
31 irregular 7 22 622 68 1.500000e+00 0.321 slower 0 4.952711e+04 4.952937e+04 2.260
31 irregular 7 23 623 69 2 0.246 faster 1 4.953060e+04 4.953318e+04 2.575
31 irregular 7 24 624 68 2.500000e+00 0.512 faster 1 4.953475e+04 4.953775e+04 2.999
31 irregular 7 25 625 52 1 0.448 slower 1 4.953923e+04 4.954103e+04 1.803
31 irregular 7 26 626 53 1.500000e+00 0.126 slower 1 4.954224e+04 4.954447e+04 2.229
31 irregular 7 27 627 67 2 0.533 slower 0 4.954604e+04 4.954890e+04 2.861
31 irregular 7 28 628 52 2 0.466 slower 1 4.955032e+04 4.955309e+04 2.772
31 irregular 7 29 629 53 1.500000e+00 0.480 slower 1 4.955463e+04 4.955697e+04 2.341
31 irregular 7 30 630 67 1 0.369 slower 0 4.955838e+04 4.956015e+04 1.774
31 irregular 7 31 631 68 1 0.426 slower 0 4.956156e+04 4.956322e+04 1.664
31 irregular 7 32 632 69 3 0.496 slower 0 4.956481e+04 4.956853e+04 3.721
31 irregular 7 33 633 70 3 0.562 faster 1 4.957020e+04 4.957378e+04 3.586
31 irregular 7 34 634 51 2 0.553 faster 0 4.957541e+04 4.957822e+04 2.807
31 irregular 7 35 635 70 1 0.514 faster 1 4.957978e+04 4.958174e+04 1.951
31 irregular 7 36 636 70 3 0.589 faster 1 4.958336e+04 4.958703e+04 3.673
31 irregular 7 37 637 51 1.500000e+00 0.447 slower 1 4.958853e+04 4.959079e+04 2.258
31 irregular 7 38 638 69 3 0.582 faster 1 4.959243e+04 4.959614e+04 3.701
31 irregular 7 39 639 52 2 0.459 slower 1 4.959764e+04 4.960039e+04 2.747
31 irregular 7 40 640 52 2 0.501 slower 1 4.960188e+04 4.960473e+04 2.846
31 irregular 7 41 641 53 1.500000e+00 0.416 slower 1 4.960622e+04 4.960847e+04 2.251
31 irregular 7 42 642 53 3 0.273 slower 1 4.960985e+04 4.961356e+04 3.709
31 irregular 7 43 643 66 1.500000e+00 0.346 faster 1 4.961493e+04 4.961705e+04 2.116
31 irregular 7 44 644 66 2.500000e+00 0.180 faster 1 4.961824e+04 4.962151e+04 3.268
31 irregular 7 45 645 55 1.500000e+00 0.329 faster 0 4.962287e+04 4.962506e+04 2.193
31 irregular 7 46 646 54 1.500000e+00 0.187 slower 1 4.962622e+04 4.962836e+04 2.137
31 irregular 7 47 647 66 2 0.287 faster 1 4.962968e+04 4.963221e+04 2.532
31 irregular 7 48 648 65 1 0.293 faster 1 4.963356e+04 4.963538e+04 1.826
31 irregular 7 49 649 65 1.500000e+00 0.406 slower 0 4.963686e+04 4.963903e+04 2.170
31 irregular 7 50 650 66 1 0.102 faster 1 4.964022e+04 4.964194e+04 1.727
31 irregular 7 51 651 55 2 0.382 slower 1 4.964300e+04 4.964559e+04 2.589
31 irregular 7 52 652 65 2 0.276 slower 0 4.964692e+04 4.964978e+04 2.859
31 irregular 7 53 653 54 3 0.446 slower 1 4.965111e+04 4.965525e+04 4.148
31 irregular 7 54 654 55 3 0.235 faster 0 4.965652e+04 4.966017e+04 3.643
31 irregular 7 55 655 54 2.500000e+00 0.238 slower 1 4.966149e+04 4.966455e+04 3.066
31 irregular 7 56 656 54 3 0.383 faster 0 4.966590e+04 4.966953e+04 3.623
31 irregular 7 57 657 53 1 0.521 slower 1 4.967107e+04 4.967271e+04 1.640
31 irregular 7 58 658 66 3 0.487 slower 0 4.967427e+04 4.967799e+04 3.726
31 irregular 7 59 659 53 3 0.364 slower 1 4.967937e+04 4.968301e+04 3.647
31 irregular 7 60 660 53 1.500000e+00 0.498 faster 0 4.968451e+04 4.968666e+04 2.158
31 irregular 7 61 661 68 2 0.521 faster 1 4.968837e+04 4.969135e+04 2.982
31 irregular 7 62 662 53 2.500000e+00 0.598 slower 1 4.969299e+04 4.969621e+04 3.224
31 irregular 7 63 663 67 2.500000e+00 0.368 faster 1 4.969758e+04 4.970047e+04 2.894
31 irregular 7 64 664 54 3 0.418 slower 1 4.970188e+04 4.970602e+04 4.139
31 irregular 7 65 665 54 1 0.541 slower 1 4.970757e+04 4.970943e+04 1.860
31 irregular 7 66 666 55 1 0.118 slower 1 4.971058e+04 4.971226e+04 1.688
31 irregular 7 67 667 65 3 0.438 slower 0 4.971371e+04 4.971754e+04 3.828
31 irregular 7 68 668 66 2.500000e+00 0.129 slower 0 4.971871e+04 4.972196e+04 3.249
31 irregular 7 69 669 67 1 0.143 slower 0 4.972315e+04 4.972497e+04 1.819
31 irregular 7 70 670 52 2 0.177 slower 1 4.972630e+04 4.972900e+04 2.704
31 irregular 7 71 671 53 2.500000e+00 0.495 slower 1 4.973054e+04 4.973377e+04 3.223
31 irregular 7 72 672 67 2.500000e+00 0.575 slower 0 4.973548e+04 4.973871e+04 3.231
31 irregular 7 73 673 52 2.500000e+00 0.349 faster 0 4.974014e+04 4.974343e+04 3.296
31 irregular 7 74 674 69 2 0.230 faster 1 4.974472e+04 4.974734e+04 2.616
31 irregular 7 75 675 52 1 0.596 slower 1 4.974896e+04 4.975119e+04 2.233
31 irregular 7 76 676 68 2.500000e+00 0.102 faster 1 4.975240e+04 4.975548e+04 3.081
31 irregular 7 77 677 67 2.500000e+00 0.340 slower 0 4.975684e+04 4.976009e+04 3.244
31 irregular 7 78 678 68 2 0.436 faster 1 4.976150e+04 4.976406e+04 2.557
31 irregular 7 79 679 52 2 0.296 slower 1 4.976532e+04 4.976799e+04 2.667
31 irregular 7 80 680 67 1.500000e+00 0.210 slower 0 4.976920e+04 4.977134e+04 2.136
31 irregular 7 81 681 52 1 0.418 faster 0 4.977277e+04 4.977454e+04 1.770
31 irregular 7 82 682 51 1.500000e+00 0.430 slower 1 4.977594e+04 4.977807e+04 2.133
31 irregular 7 83 683 69 3 0.408 faster 1 4.977954e+04 4.978327e+04 3.734
31 irregular 7 84 684 52 2 0.132 slower 1 4.978434e+04 4.978697e+04 2.632
31 irregular 7 85 685 52 1.500000e+00 0.496 faster 0 4.978842e+04 4.979052e+04 2.098
31 irregular 7 86 686 69 3 0.389 faster 1 4.979194e+04 4.979588e+04 3.941
31 irregular 7 87 687 52 3 0.168 slower 1 4.979703e+04 4.980068e+04 3.644
31 irregular 7 88 688 52 2.500000e+00 0.597 faster 0 4.980229e+04 4.980549e+04 3.209
31 irregular 7 89 689 69 2.500000e+00 0.190 faster 1 4.980667e+04 4.981018e+04 3.508
31 irregular 7 90 690 52 2.500000e+00 0.524 faster 0 4.981164e+04 4.981503e+04 3.389
31 irregular 7 91 691 69 1.500000e+00 0.485 faster 1 4.981656e+04 4.981890e+04 2.341
31 irregular 7 92 692 69 1.500000e+00 0.248 faster 1 4.982016e+04 4.982228e+04 2.119
31 irregular 7 93 693 68 1 0.220 slower 0 4.982356e+04 4.982524e+04 1.675
31 irregular 7 94 694 69 2 0.113 faster 1 4.982640e+04 4.982881e+04 2.405
31 irregular 7 95 695 51 1 0.123 faster 0 4.983002e+04 4.983213e+04 2.117
31 irregular 7 96 696 70 2 0.501 slower 0 4.983372e+04 4.983657e+04 2.844
31 irregular 7 97 697 71 2.500000e+00 0.217 faster 1 4.983783e+04 4.984108e+04 3.254
31 irregular 7 98 698 50 2.500000e+00 0.238 slower 1 4.984241e+04 4.984559e+04 3.178
31 irregular 7 99 699 50 1 0.378 slower 1 4.984718e+04 4.984906e+04 1.881
31 irregular 7 100 700 69 2 0.130 faster 1 4.985036e+04 4.985292e+04 2.557
31 regular 8 1 701 51 3 0.196 faster 0 4.987786e+04 4.988169e+04 3.828
31 regular 8 2 702 70 3 0.519 faster 1 4.988331e+04 4.988695e+04 3.644
31 regular 8 3 703 69 3 0.346 faster 1 4.988841e+04 4.989207e+04 3.658
31 regular 8 4 704 69 3 0.579 faster 1 4.989376e+04 4.989745e+04 3.690
31 regular 8 5 705 52 3 0.111 faster 0 4.989880e+04 4.990274e+04 3.940
31 regular 8 6 706 69 3 0.584 faster 1 4.990420e+04 4.990775e+04 3.547
31 regular 8 7 707 51 3 0.379 faster 0 4.990915e+04 4.991278e+04 3.628
31 regular 8 8 708 50 3 0.123 slower 1 4.991395e+04 4.991772e+04 3.767
31 regular 8 9 709 69 3 0.397 faster 1 4.991917e+04 4.992271e+04 3.543
31 regular 8 10 710 69 3 0.527 faster 1 4.992420e+04 4.992796e+04 3.755
31 regular 8 11 711 52 3 0.179 faster 0 4.992916e+04 4.993297e+04 3.810
31 regular 8 12 712 51 3 0.335 faster 0 4.993429e+04 4.993831e+04 4.020
31 regular 8 13 713 70 3 0.274 faster 1 4.993947e+04 4.994314e+04 3.668
31 regular 8 14 714 70 3 0.231 faster 1 4.994433e+04 4.994807e+04 3.745
31 regular 8 15 715 51 3 0.420 faster 0 4.994953e+04 4.995337e+04 3.840
31 regular 8 16 716 50 3 0.341 faster 0 4.995469e+04 4.995877e+04 4.081
31 regular 8 17 717 71 3 0.507 faster 1 4.996020e+04 4.996401e+04 3.809
31 regular 8 18 718 49 3 0.148 slower 1 4.996512e+04 4.996886e+04 3.732
31 regular 8 19 719 70 3 0.258 faster 1 4.997008e+04 4.997374e+04 3.655
31 regular 8 20 720 50 3 0.107 slower 1 4.997488e+04 4.997876e+04 3.883
31 regular 8 21 721 69 3 0.276 faster 1 4.998005e+04 4.998362e+04 3.571
31 regular 8 22 722 51 3 0.136 faster 0 4.998474e+04 4.998841e+04 3.667
31 regular 8 23 723 70 3 0.450 faster 1 4.998986e+04 4.999345e+04 3.585
31 regular 8 24 724 69 3 0.290 faster 1 4.999477e+04 4.999914e+04 4.373
31 regular 8 25 725 51 3 0.111 faster 0 5.000022e+04 5.000415e+04 3.928
31 regular 8 26 726 50 3 0.532 slower 1 5.000569e+04 5.000973e+04 4.041
31 regular 8 27 727 69 3 0.303 faster 1 5.001106e+04 5.001452e+04 3.462
31 regular 8 28 728 69 3 0.393 faster 1 5.001591e+04 5.001948e+04 3.566
31 regular 8 29 729 68 3 0.117 slower 0 5.002059e+04 5.002463e+04 4.039
31 regular 8 30 730 51 3 0.167 faster 0 5.002580e+04 5.002938e+04 3.587
31 regular 8 31 731 50 3 0.435 slower 1 5.003082e+04 5.003463e+04 3.812
31 regular 8 32 732 70 3 0.429 faster 1 5.003608e+04 5.003970e+04 3.620
31 regular 8 33 733 51 3 0.261 faster 0 5.004097e+04 5.004527e+04 4.304
31 regular 8 34 734 70 3 0.278 faster 1 5.004677e+04 5.005055e+04 3.784
31 regular 8 35 735 70 3 0.185 faster 1 5.005170e+04 5.005535e+04 3.653
31 regular 8 36 736 51 3 0.270 slower 1 5.005661e+04 5.006042e+04 3.812
31 regular 8 37 737 69 3 0.309 slower 0 5.006179e+04 5.006607e+04 4.278
31 regular 8 38 738 70 3 0.470 faster 1 5.006764e+04 5.007132e+04 3.682
31 regular 8 39 739 69 3 0.129 faster 1 5.007250e+04 5.007625e+04 3.747
31 regular 8 40 740 51 3 0.111 slower 1 5.007732e+04 5.008092e+04 3.597
31 regular 8 41 741 68 3 0.379 faster 1 5.008239e+04 5.008625e+04 3.860
31 regular 8 42 742 52 3 0.547 slower 1 5.008791e+04 5.009172e+04 3.806
31 regular 8 43 743 67 3 0.451 faster 1 5.009322e+04 5.009686e+04 3.632
31 regular 8 44 744 67 3 0.175 faster 1 5.009799e+04 5.010162e+04 3.633
31 regular 8 45 745 54 3 0.497 faster 0 5.010313e+04 5.010716e+04 4.024
31 regular 8 46 746 53 3 0.141 faster 0 5.010831e+04 5.011201e+04 3.702
31 regular 8 47 747 68 3 0.429 faster 1 5.011342e+04 5.011722e+04 3.798
31 regular 8 48 748 52 3 0.147 slower 1 5.011838e+04 5.012215e+04 3.769
31 regular 8 49 749 53 3 0.364 faster 0 5.012343e+04 5.012703e+04 3.606
31 regular 8 50 750 68 3 0.241 faster 1 5.012815e+04 5.013220e+04 4.044
31 regular 8 51 751 52 3 0.190 slower 1 5.013338e+04 5.013750e+04 4.114
31 regular 8 52 752 53 3 0.575 slower 1 5.013928e+04 5.014305e+04 3.762
31 regular 8 53 753 53 3 0.113 faster 0 5.014422e+04 5.014789e+04 3.674
31 regular 8 54 754 52 3 0.204 slower 1 5.014913e+04 5.015308e+04 3.951
31 regular 8 55 755 67 3 0.286 slower 0 5.015429e+04 5.015791e+04 3.620
31 regular 8 56 756 68 3 0.210 faster 1 5.015918e+04 5.016313e+04 3.950
31 regular 8 57 757 68 3 0.495 faster 1 5.016465e+04 5.016887e+04 4.219
31 regular 8 58 758 67 3 0.228 slower 0 5.017005e+04 5.017390e+04 3.845
31 regular 8 59 759 52 3 0.512 faster 0 5.017539e+04 5.017892e+04 3.527
31 regular 8 60 760 51 3 0.260 faster 0 5.018014e+04 5.018394e+04 3.804
31 regular 8 61 761 70 3 0.393 faster 1 5.018531e+04 5.018935e+04 4.039
31 regular 8 62 762 50 3 0.547 slower 1 5.019119e+04 5.019490e+04 3.711
31 regular 8 63 763 69 3 0.504 faster 1 5.019645e+04 5.020026e+04 3.813
31 regular 8 64 764 69 3 0.389 faster 1 5.020165e+04 5.020551e+04 3.861
31 regular 8 65 765 52 3 0.500 slower 1 5.020699e+04 5.021082e+04 3.831
31 regular 8 66 766 52 3 0.463 slower 1 5.021225e+04 5.021625e+04 4.000
31 regular 8 67 767 53 3 0.581 faster 0 5.021786e+04 5.022164e+04 3.783
31 regular 8 68 768 52 3 0.593 slower 1 5.022324e+04 5.022697e+04 3.725
31 regular 8 69 769 68 3 0.318 slower 0 5.022829e+04 5.023215e+04 3.862
31 regular 8 70 770 69 3 0.233 faster 1 5.023341e+04 5.023716e+04 3.752
31 regular 8 71 771 68 3 0.324 slower 0 5.023848e+04 5.024230e+04 3.816
31 regular 8 72 772 69 3 0.545 faster 1 5.024390e+04 5.024754e+04 3.640
31 regular 8 73 773 69 3 0.228 faster 1 5.024884e+04 5.025263e+04 3.789
31 regular 8 74 774 68 3 0.211 faster 1 5.025386e+04 5.025769e+04 3.831
31 regular 8 75 775 52 3 0.279 slower 1 5.025890e+04 5.026270e+04 3.793
31 regular 8 76 776 67 3 0.142 slower 0 5.026382e+04 5.026790e+04 4.072
31 regular 8 77 777 68 3 0.528 faster 1 5.026937e+04 5.027316e+04 3.792
31 regular 8 78 778 68 3 0.413 faster 1 5.027460e+04 5.027830e+04 3.700
31 regular 8 79 779 67 3 0.517 slower 0 5.027982e+04 5.028351e+04 3.693
31 regular 8 80 780 52 3 0.404 slower 1 5.028489e+04 5.028858e+04 3.690
31 regular 8 81 781 52 3 0.325 slower 1 5.028990e+04 5.029345e+04 3.551
31 regular 8 82 782 53 3 0.346 faster 0 5.029480e+04 5.029850e+04 3.701
31 regular 8 83 783 52 3 0.397 slower 1 5.029988e+04 5.030366e+04 3.778
31 regular 8 84 784 52 3 0.344 faster 0 5.030500e+04 5.030865e+04 3.645
31 regular 8 85 785 51 3 0.138 slower 1 5.030979e+04 5.031353e+04 3.735
31 regular 8 86 786 68 3 0.449 slower 0 5.031495e+04 5.031892e+04 3.964
31 regular 8 87 787 51 3 0.111 slower 1 5.031996e+04 5.032364e+04 3.678
31 regular 8 88 788 51 3 0.288 slower 1 5.032503e+04 5.032865e+04 3.612
31 regular 8 89 789 68 3 0.325 slower 0 5.032995e+04 5.033366e+04 3.706
31 regular 8 90 790 51 3 0.584 slower 1 5.033525e+04 5.033895e+04 3.704
31 regular 8 91 791 69 3 0.354 faster 1 5.034042e+04 5.034401e+04 3.586
31 regular 8 92 792 68 3 0.192 slower 0 5.034535e+04 5.034918e+04 3.821
31 regular 8 93 793 69 3 0.481 faster 1 5.035070e+04 5.035428e+04 3.579
31 regular 8 94 794 51 3 0.425 slower 1 5.035578e+04 5.035940e+04 3.623
31 regular 8 95 795 68 3 0.204 faster 1 5.036058e+04 5.036423e+04 3.653
31 regular 8 96 796 52 3 0.123 slower 1 5.036541e+04 5.036910e+04 3.684
31 regular 8 97 797 53 3 0.218 faster 0 5.037037e+04 5.037412e+04 3.745
31 regular 8 98 798 52 3 0.545 slower 1 5.037571e+04 5.037988e+04 4.171
31 regular 8 99 799 52 3 0.389 slower 1 5.038158e+04 5.038606e+04 4.480
31 regular 8 100 800 53 3 0.312 slower 1 5.038730e+04 5.039105e+04 3.748
31 irregular 9 1 801 67 2 0.493 slower 0 5.041721e+04 5.042001e+04 2.800
31 irregular 9 2 802 52 1.500000e+00 0.266 faster 0 5.042130e+04 5.042388e+04 2.581
31 irregular 9 3 803 51 3 0.136 slower 1 5.042512e+04 5.042890e+04 3.782
31 irregular 9 4 804 52 3 0.582 slower 1 5.043058e+04 5.043503e+04 4.452
31 irregular 9 5 805 68 1 0.236 faster 1 5.043631e+04 5.043838e+04 2.061
31 irregular 9 6 806 53 2.500000e+00 0.364 slower 1 5.043978e+04 5.044306e+04 3.281
31 irregular 9 7 807 53 2 0.142 slower 1 5.044425e+04 5.044689e+04 2.637
31 irregular 9 8 808 54 2.500000e+00 0.288 slower 1 5.044820e+04 5.045140e+04 3.201
31 irregular 9 9 809 66 2.500000e+00 0.239 slower 0 5.045267e+04 5.045575e+04 3.081
31 irregular 9 10 810 53 3 0.244 faster 0 5.045669e+04 5.046089e+04 4.196
31 irregular 9 11 811 68 2.500000e+00 0.251 faster 1 5.046228e+04 5.046549e+04 3.210
31 irregular 9 12 812 53 2.500000e+00 0.105 slower 1 5.046668e+04 5.047012e+04 3.434
31 irregular 9 13 813 53 1.500000e+00 0.396 slower 1 5.047149e+04 5.047393e+04 2.435
31 irregular 9 14 814 54 2.500000e+00 0.486 faster 0 5.047535e+04 5.047869e+04 3.348
31 irregular 9 15 815 53 2 0.290 slower 1 5.048002e+04 5.048271e+04 2.692
31 irregular 9 16 816 67 1.500000e+00 0.201 slower 0 5.048393e+04 5.048610e+04 2.172
31 irregular 9 17 817 68 3 0.327 faster 1 5.048749e+04 5.049172e+04 4.234
31 irregular 9 18 818 53 1.500000e+00 0.314 slower 1 5.049305e+04 5.049516e+04 2.109
31 irregular 9 19 819 53 1 0.367 faster 0 5.049661e+04 5.049841e+04 1.794
31 irregular 9 20 820 68 1.500000e+00 0.314 faster 1 5.049939e+04 5.050180e+04 2.405
31 irregular 9 21 821 53 3 0.113 faster 0 5.050292e+04 5.050666e+04 3.740
31 irregular 9 22 822 52 1 0.155 slower 1 5.050789e+04 5.050964e+04 1.753
31 irregular 9 23 823 52 1.500000e+00 0.226 slower 1 5.051093e+04 5.051329e+04 2.357
31 irregular 9 24 824 67 3 0.113 slower 0 5.051447e+04 5.051849e+04 4.014
31 irregular 9 25 825 68 2.500000e+00 0.150 faster 1 5.051956e+04 5.052271e+04 3.150
31 irregular 9 26 826 52 1 0.257 slower 1 5.052405e+04 5.052564e+04 1.589
31 irregular 9 27 827 53 2 0.580 slower 1 5.052729e+04 5.052996e+04 2.669
31 irregular 9 28 828 53 3 0.368 slower 1 5.053141e+04 5.053530e+04 3.896
31 irregular 9 29 829 54 1.500000e+00 0.401 slower 1 5.053667e+04 5.053893e+04 2.262
31 irregular 9 30 830 54 1 0.425 slower 1 5.054051e+04 5.054218e+04 1.676
31 irregular 9 31 831 55 3 0.340 faster 0 5.054355e+04 5.054727e+04 3.725
31 irregular 9 32 832 66 2 0.532 slower 0 5.054890e+04 5.055159e+04 2.692
31 irregular 9 33 833 67 2.500000e+00 0.420 faster 1 5.055306e+04 5.055628e+04 3.219
31 irregular 9 34 834 53 2.500000e+00 0.599 slower 1 5.055790e+04 5.056097e+04 3.063
31 irregular 9 35 835 54 1 0.499 faster 0 5.056250e+04 5.056431e+04 1.815
31 irregular 9 36 836 53 1 0.595 faster 0 5.056588e+04 5.056781e+04 1.932
31 irregular 9 37 837 52 1.500000e+00 0.234 slower 1 5.056911e+04 5.057108e+04 1.967
31 irregular 9 38 838 68 3 0.166 faster 1 5.057235e+04 5.057588e+04 3.526
31 irregular 9 39 839 67 2 0.460 slower 0 5.057747e+04 5.058004e+04 2.571
31 irregular 9 40 840 52 2 0.253 faster 0 5.058126e+04 5.058377e+04 2.508
31 irregular 9 41 841 69 2 0.387 slower 0 5.058515e+04 5.058785e+04 2.693
31 irregular 9 42 842 70 1 0.182 slower 0 5.058908e+04 5.059124e+04 2.163
31 irregular 9 43 843 49 2.500000e+00 0.226 slower 1 5.059245e+04 5.059588e+04 3.427
31 irregular 9 44 844 49 3 0.266 slower 1 5.059721e+04 5.060092e+04 3.709
31 irregular 9 45 845 50 1 0.338 slower 1 5.060228e+04 5.060398e+04 1.694
31 irregular 9 46 846 70 1 0.430 faster 1 5.060542e+04 5.060748e+04 2.056
31 irregular 9 47 847 69 2 0.308 slower 0 5.060883e+04 5.061284e+04 4.009
31 irregular 9 48 848 70 2 0.271 faster 1 5.061412e+04 5.061668e+04 2.555
31 irregular 9 49 849 70 1.500000e+00 0.226 faster 1 5.061814e+04 5.062050e+04 2.360
31 irregular 9 50 850 51 1 0.102 slower 1 5.062168e+04 5.062335e+04 1.675
31 irregular 9 51 851 69 1.500000e+00 0.275 faster 1 5.062466e+04 5.062685e+04 2.197
31 irregular 9 52 852 68 1 0.389 slower 0 5.062836e+04 5.063022e+04 1.859
31 irregular 9 53 853 51 1.500000e+00 0.434 slower 1 5.063162e+04 5.063391e+04 2.291
31 irregular 9 54 854 51 2.500000e+00 0.588 slower 1 5.063550e+04 5.063887e+04 3.374
31 irregular 9 55 855 68 1.500000e+00 0.265 slower 0 5.064021e+04 5.064263e+04 2.419
31 irregular 9 56 856 69 2 0.571 faster 1 5.064424e+04 5.064674e+04 2.499
31 irregular 9 57 857 69 3 0.141 slower 0 5.064799e+04 5.065164e+04 3.653
31 irregular 9 58 858 50 3 0.396 slower 1 5.065313e+04 5.065681e+04 3.673
31 irregular 9 59 859 51 3 0.214 slower 1 5.065810e+04 5.066197e+04 3.878
31 irregular 9 60 860 69 1 0.585 slower 0 5.066359e+04 5.066564e+04 2.049
31 irregular 9 61 861 70 1 0.396 slower 0 5.066713e+04 5.066903e+04 1.902
31 irregular 9 62 862 71 1.500000e+00 0.358 faster 1 5.067047e+04 5.067286e+04 2.383
31 irregular 9 63 863 70 1.500000e+00 0.591 slower 0 5.067450e+04 5.067665e+04 2.150
31 irregular 9 64 864 49 2.500000e+00 0.248 slower 1 5.067800e+04 5.068116e+04 3.162
31 irregular 9 65 865 71 2.500000e+00 0.216 faster 1 5.068239e+04 5.068551e+04 3.124
31 irregular 9 66 866 50 1.500000e+00 0.247 slower 1 5.068688e+04 5.068887e+04 1.994
31 irregular 9 67 867 70 3 0.156 faster 1 5.069012e+04 5.069397e+04 3.858
31 irregular 9 68 868 51 2 0.366 slower 1 5.069541e+04 5.069797e+04 2.561
31 irregular 9 69 869 69 2 0.165 faster 1 5.069920e+04 5.070188e+04 2.682
31 irregular 9 70 870 52 2 0.596 slower 1 5.070345e+04 5.070599e+04 2.536
31 irregular 9 71 871 68 1 0.428 slower 0 5.070742e+04 5.070908e+04 1.663
31 irregular 9 72 872 51 3 0.538 faster 0 5.071070e+04 5.071425e+04 3.542
31 irregular 9 73 873 70 2 0.195 slower 0 5.071550e+04 5.071799e+04 2.490
31 irregular 9 74 874 71 2.500000e+00 0.401 faster 1 5.071945e+04 5.072258e+04 3.131
31 irregular 9 75 875 50 2.500000e+00 0.106 slower 1 5.072371e+04 5.072674e+04 3.037
31 irregular 9 76 876 70 3 0.518 slower 0 5.072836e+04 5.073213e+04 3.779
31 irregular 9 77 877 49 1.500000e+00 0.498 slower 1 5.073374e+04 5.073583e+04 2.095
31 irregular 9 78 878 50 1.500000e+00 0.123 slower 1 5.073704e+04 5.073913e+04 2.085
31 irregular 9 79 879 70 1 0.414 slower 0 5.074064e+04 5.074269e+04 2.050
31 irregular 9 80 880 49 1 0.400 faster 0 5.074436e+04 5.074620e+04 1.839
31 irregular 9 81 881 72 1.500000e+00 0.402 faster 1 5.074778e+04 5.074998e+04 2.191
31 irregular 9 82 882 49 2.500000e+00 0.257 slower 1 5.075135e+04 5.075457e+04 3.216
31 irregular 9 83 883 71 3 0.133 faster 1 5.075573e+04 5.075961e+04 3.878
31 irregular 9 84 884 70 1 0.586 faster 1 5.076130e+04 5.076313e+04 1.825
31 irregular 9 85 885 70 1.500000e+00 0.279 faster 1 5.076444e+04 5.076730e+04 2.858
31 irregular 9 86 886 69 3 0.504 faster 1 5.076883e+04 5.077249e+04 3.655
31 irregular 9 87 887 51 1 0.568 slower 1 5.077404e+04 5.077569e+04 1.646
31 irregular 9 88 888 52 2 0.284 slower 1 5.077704e+04 5.077972e+04 2.674
31 irregular 9 89 889 52 2 0.208 slower 1 5.078091e+04 5.078357e+04 2.664
31 irregular 9 90 890 53 2 0.488 slower 1 5.078507e+04 5.078767e+04 2.602
31 irregular 9 91 891 67 2.500000e+00 0.260 faster 1 5.078895e+04 5.079218e+04 3.236
31 irregular 9 92 892 66 2.500000e+00 0.598 faster 1 5.079374e+04 5.079726e+04 3.512
31 irregular 9 93 893 66 2.500000e+00 0.448 slower 0 5.079874e+04 5.080196e+04 3.214
31 irregular 9 94 894 53 2 0.267 slower 1 5.080318e+04 5.080578e+04 2.604
31 irregular 9 95 895 66 1.500000e+00 0.536 slower 0 5.080735e+04 5.080962e+04 2.277
31 irregular 9 96 896 67 2.500000e+00 0.308 slower 0 5.081093e+04 5.081413e+04 3.209
31 irregular 9 97 897 68 3 0.489 slower 0 5.081562e+04 5.081938e+04 3.761
31 irregular 9 98 898 69 2 0.462 faster 1 5.082089e+04 5.082382e+04 2.920
31 irregular 9 99 899 69 1 0.365 faster 1 5.082522e+04 5.082693e+04 1.716
31 irregular 9 100 900 68 3 0.242 slower 0 5.082825e+04 5.083193e+04 3.682
31 regular 10 1 901 51 2.500000e+00 0.164 none 2 5.084670e+04 5.085220e+04 5.499
31 regular 10 2 902 69 2.500000e+00 0.560 faster 1 5.085339e+04 5.085678e+04 3.383
31 regular 10 3 903 51 2.500000e+00 0.309 faster 0 5.085808e+04 5.086129e+04 3.211
31 regular 10 4 904 70 2.500000e+00 0.505 faster 1 5.086284e+04 5.086634e+04 3.506
31 regular 10 5 905 69 2.500000e+00 0.558 faster 1 5.086803e+04 5.087130e+04 3.268
31 regular 10 6 906 51 2.500000e+00 0.263 faster 0 5.087263e+04 5.087602e+04 3.389
31 regular 10 7 907 50 2.500000e+00 0.156 faster 0 5.087722e+04 5.088052e+04 3.301
31 regular 10 8 908 49 2.500000e+00 0.463 slower 1 5.088197e+04 5.088548e+04 3.508
31 regular 10 9 909 50 2.500000e+00 0.143 faster 0 5.088659e+04 5.088978e+04 3.193
31 regular 10 10 910 71 2.500000e+00 0.391 faster 1 5.089109e+04 5.089454e+04 3.441
31 regular 10 11 911 71 2.500000e+00 0.473 faster 1 5.089598e+04 5.089908e+04 3.096
31 regular 10 12 912 50 2.500000e+00 0.468 slower 1 5.090053e+04 5.090383e+04 3.304
31 regular 10 13 913 50 2.500000e+00 0.554 slower 1 5.090536e+04 5.090884e+04 3.476
31 regular 10 14 914 69 2.500000e+00 0.165 faster 1 5.090998e+04 5.091317e+04 3.194
31 regular 10 15 915 69 2.500000e+00 0.231 faster 1 5.091431e+04 5.091761e+04 3.299
31 regular 10 16 916 52 2.500000e+00 0.317 slower 1 5.091891e+04 5.092215e+04 3.238
31 regular 10 17 917 68 2.500000e+00 0.523 faster 1 5.092369e+04 5.092673e+04 3.038
31 regular 10 18 918 53 2.500000e+00 0.261 slower 1 5.092798e+04 5.093111e+04 3.134
31 regular 10 19 919 53 2.500000e+00 0.493 faster 0 5.093256e+04 5.093559e+04 3.035
31 regular 10 20 920 68 2.500000e+00 0.571 faster 1 5.093713e+04 5.094029e+04 3.160
31 regular 10 21 921 67 2.500000e+00 0.505 slower 0 5.094178e+04 5.094508e+04 3.297
31 regular 10 22 922 52 2.500000e+00 0.528 faster 0 5.094656e+04 5.094962e+04 3.065
31 regular 10 23 923 69 2.500000e+00 0.478 faster 1 5.095108e+04 5.095429e+04 3.217
31 regular 10 24 924 69 2.500000e+00 0.337 faster 1 5.095564e+04 5.095900e+04 3.357
31 regular 10 25 925 68 2.500000e+00 0.457 faster 1 5.096044e+04 5.096354e+04 3.102
31 regular 10 26 926 52 2.500000e+00 0.477 faster 0 5.096496e+04 5.096799e+04 3.029
31 regular 10 27 927 51 2.500000e+00 0.405 faster 0 5.096936e+04 5.097237e+04 3.020
31 regular 10 28 928 70 2.500000e+00 0.164 faster 1 5.097353e+04 5.097657e+04 3.040
31 regular 10 29 929 69 2.500000e+00 0.280 faster 1 5.097781e+04 5.098159e+04 3.776
31 regular 10 30 930 51 2.500000e+00 0.252 slower 1 5.098280e+04 5.098609e+04 3.287
31 regular 10 31 931 68 2.500000e+00 0.541 faster 1 5.098759e+04 5.099055e+04 2.960
31 regular 10 32 932 52 2.500000e+00 0.237 slower 1 5.099184e+04 5.099513e+04 3.289
31 regular 10 33 933 67 2.500000e+00 0.198 faster 1 5.099635e+04 5.099940e+04 3.049
31 regular 10 34 934 53 2.500000e+00 0.385 faster 0 5.100077e+04 5.100438e+04 3.604
31 regular 10 35 935 68 2.500000e+00 0.558 slower 0 5.100591e+04 5.100917e+04 3.264
31 regular 10 36 936 69 2.500000e+00 0.473 faster 1 5.101071e+04 5.101404e+04 3.330
31 regular 10 37 937 68 2.500000e+00 0.316 faster 1 5.101529e+04 5.101860e+04 3.309
31 regular 10 38 938 68 2.500000e+00 0.245 slower 0 5.101991e+04 5.102389e+04 3.983
31 regular 10 39 939 69 2.500000e+00 0.323 faster 1 5.102523e+04 5.102825e+04 3.021
31 regular 10 40 940 68 2.500000e+00 0.403 faster 1 5.102968e+04 5.103325e+04 3.572
31 regular 10 41 941 68 2.500000e+00 0.276 slower 0 5.103458e+04 5.103798e+04 3.397
31 regular 10 42 942 69 2.500000e+00 0.438 faster 1 5.103933e+04 5.104239e+04 3.056
31 regular 10 43 943 68 2.500000e+00 0.201 faster 1 5.104362e+04 5.104679e+04 3.166
31 regular 10 44 944 52 2.500000e+00 0.152 slower 1 5.104796e+04 5.105114e+04 3.184
31 regular 10 45 945 67 2.500000e+00 0.187 slower 0 5.105234e+04 5.105572e+04 3.377
31 regular 10 46 946 52 2.500000e+00 0.422 faster 0 5.105720e+04 5.106023e+04 3.028
31 regular 10 47 947 69 2.500000e+00 0.545 faster 1 5.106178e+04 5.106492e+04 3.138
31 regular 10 48 948 69 2.500000e+00 0.322 slower 0 5.106629e+04 5.106985e+04 3.561
31 regular 10 49 949 50 2.500000e+00 0.579 faster 0 5.107139e+04 5.107481e+04 3.419
31 regular 10 50 950 49 2.500000e+00 0.327 slower 1 5.107615e+04 5.107940e+04 3.247
31 regular 10 51 951 50 2.500000e+00 0.411 slower 1 5.108080e+04 5.108420e+04 3.399
31 regular 10 52 952 70 2.500000e+00 0.291 faster 1 5.108547e+04 5.108869e+04 3.221
31 regular 10 53 953 51 2.500000e+00 0.389 slower 1 5.109018e+04 5.109340e+04 3.218
31 regular 10 54 954 69 2.500000e+00 0.300 faster 1 5.109479e+04 5.109828e+04 3.484
31 regular 10 55 955 52 2.500000e+00 0.170 slower 1 5.109951e+04 5.110269e+04 3.181
31 regular 10 56 956 68 2.500000e+00 0.457 slower 0 5.110421e+04 5.110748e+04 3.265
31 regular 10 57 957 69 2.500000e+00 0.514 faster 1 5.110909e+04 5.111218e+04 3.096
31 regular 10 58 958 52 2.500000e+00 0.498 slower 1 5.111375e+04 5.111689e+04 3.136
31 regular 10 59 959 68 2.500000e+00 0.218 slower 0 5.111814e+04 5.112170e+04 3.563
31 regular 10 60 960 51 2.500000e+00 0.424 slower 1 5.112307e+04 5.112621e+04 3.144
31 regular 10 61 961 52 2.500000e+00 0.114 slower 1 5.112744e+04 5.113057e+04 3.132
31 regular 10 62 962 52 2.500000e+00 0.346 slower 1 5.113203e+04 5.113527e+04 3.242
31 regular 10 63 963 67 2.500000e+00 0.180 slower 0 5.113645e+04 5.113977e+04 3.314
31 regular 10 64 964 68 2.500000e+00 0.331 faster 1 5.114108e+04 5.114434e+04 3.262
31 regular 10 65 965 52 2.500000e+00 0.408 slower 1 5.114568e+04 5.114932e+04 3.635
31 regular 10 66 966 53 2.500000e+00 0.220 faster 0 5.115069e+04 5.115420e+04 3.513
31 regular 10 67 967 52 2.500000e+00 0.171 slower 1 5.115537e+04 5.115838e+04 3.009
31 regular 10 68 968 52 2.500000e+00 0.120 slower 1 5.115952e+04 5.116268e+04 3.161
31 regular 10 69 969 67 2.500000e+00 0.516 faster 1 5.116426e+04 5.116733e+04 3.071
31 regular 10 70 970 67 2.500000e+00 0.239 slower 0 5.116862e+04 5.117207e+04 3.452
31 regular 10 71 971 52 2.500000e+00 0.176 slower 1 5.117330e+04 5.117647e+04 3.171
31 regular 10 72 972 67 2.500000e+00 0.350 faster 1 5.117784e+04 5.118101e+04 3.173
31 regular 10 73 973 53 2.500000e+00 0.392 faster 0 5.118239e+04 5.118565e+04 3.269
31 regular 10 74 974 68 2.500000e+00 0.143 faster 1 5.118643e+04 5.118969e+04 3.252
31 regular 10 75 975 53 2.500000e+00 0.588 slower 1 5.119130e+04 5.119455e+04 3.246
31 regular 10 76 976 53 2.500000e+00 0.406 slower 1 5.119596e+04 5.119913e+04 3.169
31 regular 10 77 977 54 2.500000e+00 0.571 slower 1 5.120080e+04 5.120410e+04 3.306
31 regular 10 78 978 54 2.500000e+00 0.226 slower 1 5.120541e+04 5.120868e+04 3.267
31 regular 10 79 979 65 2.500000e+00 0.430 faster 1 5.121018e+04 5.121386e+04 3.687
31 regular 10 80 980 55 2.500000e+00 0.305 slower 1 5.121518e+04 5.121833e+04 3.142
31 regular 10 81 981 64 2.500000e+00 0.253 slower 0 5.121964e+04 5.122345e+04 3.809
31 regular 10 82 982 55 2.500000e+00 0.305 faster 0 5.122476e+04 5.122780e+04 3.034
31 regular 10 83 983 54 2.500000e+00 0.327 slower 1 5.122920e+04 5.123255e+04 3.353
31 regular 10 84 984 54 2.500000e+00 0.354 slower 1 5.123392e+04 5.123722e+04 3.306
31 regular 10 85 985 55 2.500000e+00 0.344 faster 0 5.123868e+04 5.124185e+04 3.164
31 regular 10 86 986 54 2.500000e+00 0.147 slower 1 5.124312e+04 5.124647e+04 3.352
31 regular 10 87 987 66 2.500000e+00 0.416 faster 1 5.124793e+04 5.125124e+04 3.305
31 regular 10 88 988 55 2.500000e+00 0.265 faster 0 5.125255e+04 5.125567e+04 3.122
31 regular 10 89 989 66 2.500000e+00 0.177 faster 1 5.125694e+04 5.126007e+04 3.136
31 regular 10 90 990 66 2.500000e+00 0.196 slower 0 5.126124e+04 5.126433e+04 3.082
31 regular 10 91 991 53 2.500000e+00 0.488 slower 1 5.126587e+04 5.126905e+04 3.173
31 regular 10 92 992 54 2.500000e+00 0.367 slower 1 5.127042e+04 5.127361e+04 3.189
31 regular 10 93 993 66 2.500000e+00 0.427 slower 0 5.127501e+04 5.127814e+04 3.129
31 regular 10 94 994 67 2.500000e+00 0.388 slower 0 5.127954e+04 5.128260e+04 3.064
31 regular 10 95 995 52 2.500000e+00 0.335 slower 1 5.128394e+04 5.128711e+04 3.172
31 regular 10 96 996 67 2.500000e+00 0.427 faster 1 5.128856e+04 5.129185e+04 3.288
31 regular 10 97 997 53 2.500000e+00 0.413 slower 1 5.129329e+04 5.129642e+04 3.129
31 regular 10 98 998 66 2.500000e+00 0.166 slower 0 5.129759e+04 5.130068e+04 3.089
31 regular 10 99 999 53 2.500000e+00 0.320 slower 1 5.130201e+04 5.130506e+04 3.052
31 regular 10 100 1000 67 2.500000e+00 0.588 faster 1 5.130666e+04 5.131060e+04 3.938
