subNo condition blockNo trialNo trialID currentFrequency cueTargetInterval randomPreCueInterval response responseAccuracy startTime responseTime RT
22 regular 1 1 1 70 2 0.121 faster 1 3.814778e+06 3.814781e+06 2.753
22 regular 1 2 2 70 2 0.570 faster 1 3.814783e+06 3.814785e+06 2.660
22 regular 1 3 3 68 2 0.408 faster 1 3.814787e+06 3.814790e+06 2.880
22 regular 1 4 4 68 2 0.351 faster 1 3.814791e+06 3.814794e+06 3.007
22 regular 1 5 5 54 2 0.295 slower 1 3.814796e+06 3.814799e+06 3.013
22 regular 1 6 6 54 2 0.130 faster 0 3.814800e+06 3.814803e+06 2.724
22 regular 1 7 7 68 2 0.117 slower 0 3.814804e+06 3.814807e+06 3.113
22 regular 1 8 8 50 2 0.546 faster 0 3.814808e+06 3.814811e+06 2.965
22 regular 1 9 9 48 2 0.586 slower 1 3.814813e+06 3.814817e+06 3.662
22 regular 1 10 10 50 2 0.598 slower 1 3.814819e+06 3.814822e+06 3.419
22 regular 1 11 11 70 2 0.207 faster 1 3.814824e+06 3.814826e+06 2.827
22 regular 1 12 12 52 2 0.267 slower 1 3.814827e+06 3.814830e+06 2.779
22 regular 1 13 13 52 2 0.118 faster 0 3.814831e+06 3.814833e+06 2.639
22 regular 1 14 14 50 2 0.493 slower 1 3.814835e+06 3.814838e+06 2.914
22 regular 1 15 15 68 2 0.526 slower 0 3.814840e+06 3.814843e+06 3.625
22 regular 1 16 16 51 2 0.467 faster 0 3.814845e+06 3.814848e+06 2.909
22 regular 1 17 17 70 2 0.191 faster 1 3.814849e+06 3.814852e+06 2.953
22 regular 1 18 18 70 2 0.450 faster 1 3.814853e+06 3.814856e+06 2.812
22 regular 1 19 19 51 2 0.240 slower 1 3.814858e+06 3.814861e+06 3.153
22 regular 1 20 20 69 2 0.286 slower 0 3.814862e+06 3.814865e+06 2.839
22 regular 1 21 21 50 2 0.332 slower 1 3.814867e+06 3.814870e+06 3.023
22 regular 1 22 22 69 2 0.418 faster 1 3.814871e+06 3.814873e+06 2.843
22 regular 1 23 23 51 2 0.319 faster 0 3.814875e+06 3.814879e+06 3.092
22 regular 1 24 24 50 2 0.274 slower 1 3.814880e+06 3.814883e+06 3.140
22 regular 1 25 25 69 2 0.363 slower 0 3.814885e+06 3.814888e+06 3.085
22 regular 1 26 26 70 2 0.336 faster 1 3.814889e+06 3.814892e+06 2.901
22 regular 1 27 27 70 2 0.226 faster 1 3.814893e+06 3.814897e+06 3.249
22 regular 1 28 28 69 2 0.183 slower 0 3.814898e+06 3.814901e+06 3.355
22 regular 1 29 29 50 2 0.388 slower 1 3.814902e+06 3.814905e+06 2.738
22 regular 1 30 30 70 2 0.191 slower 0 3.814906e+06 3.814910e+06 3.745
22 regular 1 31 31 49 2 0.345 slower 1 3.814911e+06 3.814914e+06 3.649
22 regular 1 32 32 50 2 0.486 slower 1 3.814916e+06 3.814920e+06 3.799
22 regular 1 33 33 50 2 0.346 faster 0 3.814921e+06 3.814925e+06 3.206
22 regular 1 34 34 49 2 0.475 faster 0 3.814926e+06 3.814930e+06 3.695
22 regular 1 35 35 72 2 0.121 faster 1 3.814930e+06 3.814933e+06 3.027
22 regular 1 36 36 71 2 0.565 faster 1 3.814935e+06 3.814937e+06 2.689
22 regular 1 37 37 71 2 0.514 faster 1 3.814939e+06 3.814941e+06 2.863
22 regular 1 38 38 70 2 0.105 slower 0 3.814942e+06 3.814946e+06 3.433
22 regular 1 39 39 71 2 0.409 slower 0 3.814948e+06 3.814951e+06 3.291
22 regular 1 40 40 48 2 0.438 slower 1 3.814953e+06 3.814956e+06 3.072
22 regular 1 41 41 72 2 0.430 faster 1 3.814957e+06 3.814960e+06 2.950
22 regular 1 42 42 71 2 0.157 faster 1 3.814962e+06 3.814964e+06 2.754
22 regular 1 43 43 49 2 0.100 slower 1 3.814965e+06 3.814968e+06 3.325
22 regular 1 44 44 50 2 0.149 slower 1 3.814969e+06 3.814972e+06 2.934
22 regular 1 45 45 70 2 0.142 faster 1 3.814973e+06 3.814976e+06 2.876
22 regular 1 46 46 51 2 0.272 slower 1 3.814977e+06 3.814980e+06 3.449
22 regular 1 47 47 69 2 0.163 faster 1 3.814981e+06 3.814984e+06 2.886
22 regular 1 48 48 52 2 0.438 faster 0 3.814986e+06 3.814989e+06 2.914
22 regular 1 49 49 69 2 0.105 slower 0 3.814990e+06 3.814993e+06 3.174
22 regular 1 50 50 70 2 0.521 faster 1 3.814994e+06 3.814998e+06 3.539
22 regular 1 51 51 70 2 0.295 slower 0 3.814999e+06 3.815002e+06 3.112
22 regular 1 52 52 49 2 0.163 slower 1 3.815003e+06 3.815006e+06 3.210
22 regular 1 53 53 70 2 0.244 faster 1 3.815007e+06 3.815010e+06 2.826
22 regular 1 54 54 50 2 0.592 slower 1 3.815011e+06 3.815014e+06 2.955
22 regular 1 55 55 69 2 0.270 faster 1 3.815015e+06 3.815019e+06 3.541
22 regular 1 56 56 69 2 0.398 faster 1 3.815020e+06 3.815023e+06 2.959
22 regular 1 57 57 52 2 0.275 slower 1 3.815024e+06 3.815027e+06 3.089
22 regular 1 58 58 68 2 0.577 faster 1 3.815029e+06 3.815032e+06 2.740
22 regular 1 59 59 67 2 0.447 faster 1 3.815033e+06 3.815037e+06 3.345
22 regular 1 60 60 67 2 0.437 faster 1 3.815038e+06 3.815041e+06 3.260
22 regular 1 61 61 54 2 0.420 faster 0 3.815042e+06 3.815045e+06 2.906
22 regular 1 62 62 53 2 0.419 faster 0 3.815047e+06 3.815050e+06 3.281
22 regular 1 63 63 52 2 0.392 faster 0 3.815051e+06 3.815054e+06 2.728
22 regular 1 64 64 51 2 0.145 slower 1 3.815055e+06 3.815059e+06 3.010
22 regular 1 65 65 51 2 0.349 slower 1 3.815060e+06 3.815064e+06 3.758
22 regular 1 66 66 52 2 0.203 slower 1 3.815066e+06 3.815069e+06 3.018
22 regular 1 67 67 52 2 0.179 faster 0 3.815070e+06 3.815073e+06 2.858
22 regular 1 68 68 51 2 0.542 faster 0 3.815075e+06 3.815078e+06 2.970
22 regular 1 69 69 70 2 0.198 faster 1 3.815079e+06 3.815082e+06 2.803
22 regular 1 70 70 51 2 0.533 slower 1 3.815084e+06 3.815087e+06 3.225
22 regular 1 71 71 69 2 0.356 faster 1 3.815088e+06 3.815091e+06 2.735
22 regular 1 72 72 52 2 0.502 faster 0 3.815092e+06 3.815095e+06 2.822
22 regular 1 73 73 51 2 0.384 faster 0 3.815096e+06 3.815100e+06 3.209
22 regular 1 74 74 70 2 0.149 faster 1 3.815100e+06 3.815103e+06 2.980
22 regular 1 75 75 50 2 0.413 slower 1 3.815105e+06 3.815108e+06 2.757
22 regular 1 76 76 69 2 0.358 faster 1 3.815109e+06 3.815112e+06 2.813
22 regular 1 77 77 51 2 0.466 slower 1 3.815114e+06 3.815116e+06 2.737
22 regular 1 78 78 52 2 0.587 slower 1 3.815118e+06 3.815121e+06 3.136
22 regular 1 79 79 52 2 0.161 faster 0 3.815122e+06 3.815125e+06 2.958
22 regular 1 80 80 51 2 0.118 slower 1 3.815126e+06 3.815129e+06 3.204
22 regular 1 81 81 52 2 0.325 faster 0 3.815130e+06 3.815133e+06 3.135
22 regular 1 82 82 69 2 0.249 slower 0 3.815134e+06 3.815138e+06 3.328
22 regular 1 83 83 50 2 0.302 slower 1 3.815139e+06 3.815143e+06 3.952
22 regular 1 84 84 50 2 0.190 slower 1 3.815143e+06 3.815146e+06 2.917
22 regular 1 85 85 69 2 0.265 faster 1 3.815148e+06 3.815151e+06 3.440
22 regular 1 86 86 69 2 0.546 slower 0 3.815152e+06 3.815156e+06 3.367
22 regular 1 87 87 70 2 0.176 slower 0 3.815157e+06 3.815161e+06 3.460
22 regular 1 88 88 71 2 0.505 faster 1 3.815162e+06 3.815165e+06 3.226
22 regular 1 89 89 70 2 0.192 faster 1 3.815166e+06 3.815170e+06 3.303
22 regular 1 90 90 50 2 0.314 slower 1 3.815171e+06 3.815174e+06 2.801
22 regular 1 91 91 69 2 0.226 faster 1 3.815176e+06 3.815178e+06 2.696
22 regular 1 92 92 51 2 0.471 slower 1 3.815180e+06 3.815183e+06 2.997
22 regular 1 93 93 68 2 0.583 faster 1 3.815185e+06 3.815187e+06 2.743
22 regular 1 94 94 52 2 0.565 slower 1 3.815189e+06 3.815192e+06 3.197
22 regular 1 95 95 67 2 0.470 slower 0 3.815193e+06 3.815196e+06 3.368
22 regular 1 96 96 52 2 0.298 slower 1 3.815197e+06 3.815200e+06 3.200
22 regular 1 97 97 68 2 0.132 faster 1 3.815201e+06 3.815204e+06 2.789
22 regular 1 98 98 67 2 0.185 faster 1 3.815205e+06 3.815209e+06 3.207
22 regular 1 99 99 67 2 0.173 faster 1 3.815210e+06 3.815213e+06 2.876
22 regular 1 100 100 54 2 0.173 faster 0 3.815214e+06 3.815217e+06 2.960
22 irregular 2 1 101 53 2 0.304 faster 0 3.815247e+06 3.815250e+06 2.897
22 irregular 2 2 102 52 2.500000e+00 0.303 faster 0 3.815251e+06 3.815255e+06 3.261
22 irregular 2 3 103 69 3 0.222 faster 1 3.815256e+06 3.815260e+06 3.811
22 irregular 2 4 104 51 1 0.286 faster 0 3.815261e+06 3.815263e+06 2.433
22 irregular 2 5 105 70 1 0.574 faster 1 3.815264e+06 3.815266e+06 2.000
22 irregular 2 6 106 51 2 0.258 faster 0 3.815268e+06 3.815271e+06 2.846
22 irregular 2 7 107 70 2 0.489 faster 1 3.815273e+06 3.815276e+06 2.881
22 irregular 2 8 108 50 1 0.181 slower 1 3.815277e+06 3.815279e+06 2.188
22 irregular 2 9 109 69 2.500000e+00 0.586 faster 1 3.815281e+06 3.815285e+06 3.300
22 irregular 2 10 110 51 2 0.283 slower 1 3.815286e+06 3.815288e+06 2.882
22 irregular 2 11 111 68 1 0.293 faster 1 3.815290e+06 3.815292e+06 1.788
22 irregular 2 12 112 52 2.500000e+00 0.509 faster 0 3.815293e+06 3.815297e+06 3.192
22 irregular 2 13 113 69 2 0.152 faster 1 3.815298e+06 3.815301e+06 2.767
22 irregular 2 14 114 52 2 0.394 slower 1 3.815302e+06 3.815305e+06 3.048
22 irregular 2 15 115 52 1.500000e+00 0.138 faster 0 3.815308e+06 3.815311e+06 2.438
22 irregular 2 16 116 69 2.500000e+00 0.551 faster 1 3.815313e+06 3.815316e+06 3.330
22 irregular 2 17 117 68 2.500000e+00 0.112 faster 1 3.815318e+06 3.815321e+06 3.311
22 irregular 2 18 118 52 3 0.532 faster 0 3.815323e+06 3.815326e+06 3.883
22 irregular 2 19 119 51 2.500000e+00 0.314 faster 0 3.815327e+06 3.815331e+06 3.246
22 irregular 2 20 120 50 3 0.189 slower 1 3.815332e+06 3.815336e+06 4.158
22 irregular 2 21 121 69 1.500000e+00 0.105 faster 1 3.815337e+06 3.815339e+06 2.536
22 irregular 2 22 122 51 1.500000e+00 0.327 faster 0 3.815341e+06 3.815343e+06 2.714
22 irregular 2 23 123 50 1.500000e+00 0.574 slower 1 3.815345e+06 3.815348e+06 2.337
22 irregular 2 24 124 69 1.500000e+00 0.255 faster 1 3.815349e+06 3.815351e+06 2.156
22 irregular 2 25 125 69 1 0.273 slower 0 3.815352e+06 3.815354e+06 1.986
22 irregular 2 26 126 70 1.500000e+00 0.167 faster 1 3.815355e+06 3.815358e+06 2.678
22 irregular 2 27 127 51 1.500000e+00 0.353 slower 1 3.815360e+06 3.815363e+06 2.969
22 irregular 2 28 128 69 1.500000e+00 0.183 faster 1 3.815364e+06 3.815367e+06 2.546
22 irregular 2 29 129 68 1.500000e+00 0.510 faster 1 3.815368e+06 3.815371e+06 2.262
22 irregular 2 30 130 68 3 0.392 slower 0 3.815372e+06 3.815376e+06 4.151
22 irregular 2 31 131 51 2.500000e+00 0.457 faster 0 3.815377e+06 3.815381e+06 3.516
22 irregular 2 32 132 50 1.500000e+00 0.302 slower 1 3.815383e+06 3.815385e+06 2.422
22 irregular 2 33 133 51 1.500000e+00 0.482 slower 1 3.815387e+06 3.815389e+06 2.478
22 irregular 2 34 134 69 1 0.267 slower 0 3.815391e+06 3.815393e+06 2.061
22 irregular 2 35 135 50 3 0.303 slower 1 3.815394e+06 3.815398e+06 3.922
22 irregular 2 36 136 51 3 0.112 faster 0 3.815400e+06 3.815404e+06 3.956
22 irregular 2 37 137 50 2.500000e+00 0.253 slower 1 3.815406e+06 3.815409e+06 3.469
22 irregular 2 38 138 70 1.500000e+00 0.203 faster 1 3.815410e+06 3.815413e+06 3.123
22 irregular 2 39 139 69 2 0.197 faster 1 3.815415e+06 3.815417e+06 2.717
22 irregular 2 40 140 51 3 0.268 slower 1 3.815418e+06 3.815422e+06 3.868
22 irregular 2 41 141 68 1.500000e+00 0.137 faster 1 3.815424e+06 3.815427e+06 2.859
22 irregular 2 42 142 68 2 0.565 faster 1 3.815428e+06 3.815431e+06 2.835
22 irregular 2 43 143 67 3 0.361 faster 1 3.815432e+06 3.815436e+06 3.900
22 irregular 2 44 144 53 1 0.125 slower 1 3.815437e+06 3.815439e+06 2.438
22 irregular 2 45 145 54 3 0.313 faster 0 3.815441e+06 3.815445e+06 3.901
22 irregular 2 46 146 53 2.500000e+00 0.471 faster 0 3.815446e+06 3.815450e+06 3.542
22 irregular 2 47 147 68 2.500000e+00 0.409 faster 1 3.815451e+06 3.815454e+06 3.790
22 irregular 2 48 148 68 2.500000e+00 0.118 slower 0 3.815456e+06 3.815459e+06 3.580
22 irregular 2 49 149 69 1.500000e+00 0.494 faster 1 3.815461e+06 3.815464e+06 2.781
22 irregular 2 50 150 68 1 0.581 slower 0 3.815466e+06 3.815468e+06 2.830
22 irregular 2 51 151 51 1 0.471 slower 1 3.815469e+06 3.815472e+06 2.377
22 irregular 2 52 152 69 3 0.100 faster 1 3.815474e+06 3.815478e+06 4.030
22 irregular 2 53 153 68 3 0.280 slower 0 3.815479e+06 3.815484e+06 4.326
22 irregular 2 54 154 51 2.500000e+00 0.295 faster 0 3.815485e+06 3.815488e+06 3.869
22 irregular 2 55 155 70 2.500000e+00 0.124 faster 1 3.815490e+06 3.815494e+06 3.277
22 irregular 2 56 156 70 1 0.462 slower 0 3.815495e+06 3.815497e+06 2.259
22 irregular 2 57 157 71 2 0.194 faster 1 3.815499e+06 3.815502e+06 2.834
22 irregular 2 58 158 50 2 0.470 slower 1 3.815503e+06 3.815506e+06 2.862
22 irregular 2 59 159 70 1 0.447 slower 0 3.815507e+06 3.815509e+06 2.091
22 irregular 2 60 160 71 2 0.285 faster 1 3.815511e+06 3.815514e+06 2.811
22 irregular 2 61 161 50 2 0.195 slower 1 3.815515e+06 3.815518e+06 2.852
22 irregular 2 62 162 70 2.500000e+00 0.583 faster 1 3.815519e+06 3.815523e+06 3.417
22 irregular 2 63 163 69 2 0.479 faster 1 3.815524e+06 3.815527e+06 2.853
22 irregular 2 64 164 69 1.500000e+00 0.201 faster 1 3.815528e+06 3.815531e+06 2.503
22 irregular 2 65 165 52 3 0.212 slower 1 3.815532e+06 3.815536e+06 3.693
22 irregular 2 66 166 52 1 0.430 slower 1 3.815538e+06 3.815540e+06 2.159
22 irregular 2 67 167 67 3 0.339 faster 1 3.815542e+06 3.815545e+06 3.780
22 irregular 2 68 168 53 1 0.278 faster 0 3.815546e+06 3.815549e+06 2.489
22 irregular 2 69 169 68 1 0.315 none 2 3.815550e+06 3.815554e+06 3.999
22 irregular 2 70 170 68 2 0.565 faster 1 3.815555e+06 3.815558e+06 2.809
22 irregular 2 71 171 53 1 0.264 faster 0 3.815559e+06 3.815561e+06 1.871
22 irregular 2 72 172 52 2 0.207 slower 1 3.815563e+06 3.815565e+06 2.693
22 irregular 2 73 173 68 1 0.112 faster 1 3.815567e+06 3.815569e+06 1.823
22 irregular 2 74 174 53 1.500000e+00 0.296 faster 0 3.815570e+06 3.815572e+06 2.482
22 irregular 2 75 175 68 2 0.239 faster 1 3.815573e+06 3.815576e+06 2.871
22 irregular 2 76 176 52 2 0.272 faster 0 3.815577e+06 3.815580e+06 2.780
22 irregular 2 77 177 51 2 0.452 slower 1 3.815582e+06 3.815585e+06 3.199
22 irregular 2 78 178 68 2 0.338 faster 1 3.815586e+06 3.815589e+06 2.764
22 irregular 2 79 179 52 1 0.134 faster 0 3.815590e+06 3.815592e+06 2.063
22 irregular 2 80 180 69 3 0.342 slower 0 3.815594e+06 3.815597e+06 3.732
22 irregular 2 81 181 50 2 0.590 slower 1 3.815599e+06 3.815602e+06 3.081
22 irregular 2 82 182 69 2.500000e+00 0.459 faster 1 3.815603e+06 3.815607e+06 3.273
22 irregular 2 83 183 51 3 0.128 slower 1 3.815607e+06 3.815611e+06 3.830
22 irregular 2 84 184 52 1.500000e+00 0.331 faster 0 3.815612e+06 3.815615e+06 3.064
22 irregular 2 85 185 51 2.500000e+00 0.183 slower 1 3.815616e+06 3.815620e+06 3.802
22 irregular 2 86 186 69 3 0.232 faster 1 3.815622e+06 3.815626e+06 3.758
22 irregular 2 87 187 68 1 0.213 slower 0 3.815627e+06 3.815630e+06 2.122
22 irregular 2 88 188 51 3 0.360 faster 0 3.815631e+06 3.815635e+06 3.841
22 irregular 2 89 189 50 1.500000e+00 0.411 faster 0 3.815636e+06 3.815639e+06 2.339
22 irregular 2 90 190 49 1.500000e+00 0.206 none 2 3.815640e+06 3.815645e+06 4.499
22 irregular 2 91 191 49 2.500000e+00 0.560 slower 1 3.815646e+06 3.815649e+06 3.439
22 irregular 2 92 192 71 2.500000e+00 0.392 faster 1 3.815651e+06 3.815654e+06 3.201
22 irregular 2 93 193 50 2.500000e+00 0.569 faster 0 3.815657e+06 3.815660e+06 3.447
22 irregular 2 94 194 71 3 0.260 faster 1 3.815662e+06 3.815665e+06 3.853
22 irregular 2 95 195 49 3 0.278 slower 1 3.815667e+06 3.815671e+06 3.878
22 irregular 2 96 196 50 1 0.586 slower 1 3.815672e+06 3.815675e+06 2.271
22 irregular 2 97 197 70 3 0.447 faster 1 3.815676e+06 3.815680e+06 3.835
22 irregular 2 98 198 51 1 0.378 slower 1 3.815682e+06 3.815684e+06 2.163
22 irregular 2 99 199 69 2.500000e+00 0.434 faster 1 3.815686e+06 3.815689e+06 3.137
22 irregular 2 100 200 68 1.500000e+00 0.592 slower 0 3.815690e+06 3.815693e+06 2.828
22 regular 3 1 201 51 1 0.258 faster 0 3.815876e+06 3.815878e+06 1.891
22 regular 3 2 202 70 1 0.592 faster 1 3.815880e+06 3.815881e+06 1.937
22 regular 3 3 203 50 1 0.486 slower 1 3.815883e+06 3.815885e+06 1.751
22 regular 3 4 204 69 1 0.400 slower 0 3.815886e+06 3.815888e+06 1.893
22 regular 3 5 205 50 1 0.345 slower 1 3.815890e+06 3.815891e+06 1.803
22 regular 3 6 206 70 1 0.597 slower 0 3.815893e+06 3.815895e+06 1.961
22 regular 3 7 207 71 1 0.447 slower 0 3.815897e+06 3.815898e+06 1.940
22 regular 3 8 208 72 1 0.343 slower 0 3.815900e+06 3.815902e+06 2.217
22 regular 3 9 209 73 1 0.222 faster 1 3.815903e+06 3.815906e+06 2.340
22 regular 3 10 210 72 1 0.172 slower 0 3.815907e+06 3.815909e+06 1.885
22 regular 3 11 211 47 1 0.295 slower 1 3.815910e+06 3.815912e+06 1.751
22 regular 3 12 212 47 1 0.561 slower 1 3.815914e+06 3.815916e+06 1.994
22 regular 3 13 213 48 1 0.535 faster 0 3.815917e+06 3.815920e+06 2.168
22 regular 3 14 214 47 1 0.312 slower 1 3.815921e+06 3.815923e+06 1.924
22 regular 3 15 215 47 1 0.572 slower 1 3.815925e+06 3.815927e+06 2.153
22 regular 3 16 216 72 1 0.402 faster 1 3.815928e+06 3.815930e+06 2.085
22 regular 3 17 217 72 1 0.599 slower 0 3.815933e+06 3.815934e+06 1.889
22 regular 3 18 218 73 1 0.521 faster 1 3.815936e+06 3.815938e+06 2.149
22 regular 3 19 219 48 1 0.464 slower 1 3.815939e+06 3.815941e+06 1.757
22 regular 3 20 220 48 1 0.228 slower 1 3.815942e+06 3.815945e+06 2.215
22 regular 3 21 221 49 1 0.202 faster 0 3.815946e+06 3.815948e+06 2.021
22 regular 3 22 222 48 1 0.496 slower 1 3.815950e+06 3.815952e+06 1.907
22 regular 3 23 223 48 1 0.399 faster 0 3.815953e+06 3.815955e+06 1.994
22 regular 3 24 224 47 1 0.429 slower 1 3.815957e+06 3.815958e+06 1.883
22 regular 3 25 225 72 1 0.102 slower 0 3.815960e+06 3.815962e+06 1.875
22 regular 3 26 226 73 1 0.258 faster 1 3.815963e+06 3.815965e+06 2.051
22 regular 3 27 227 73 1 0.337 faster 1 3.815967e+06 3.815969e+06 2.182
22 regular 3 28 228 72 1 0.300 faster 1 3.815970e+06 3.815972e+06 2.136
22 regular 3 29 229 72 1 0.515 slower 0 3.815974e+06 3.815977e+06 2.337
22 regular 3 30 230 47 1 0.465 slower 1 3.815978e+06 3.815980e+06 1.960
22 regular 3 31 231 72 1 0.438 faster 1 3.815982e+06 3.815984e+06 2.133
22 regular 3 32 232 72 1 0.203 slower 0 3.815986e+06 3.815988e+06 1.880
22 regular 3 33 233 47 1 0.562 slower 1 3.815990e+06 3.815992e+06 2.380
22 regular 3 34 234 72 1 0.498 slower 0 3.815994e+06 3.815996e+06 2.028
22 regular 3 35 235 47 1 0.497 slower 1 3.815997e+06 3.815999e+06 2.037
22 regular 3 36 236 47 1 0.105 slower 1 3.816001e+06 3.816003e+06 1.745
22 regular 3 37 237 72 1 0.146 faster 1 3.816004e+06 3.816006e+06 1.741
22 regular 3 38 238 72 1 0.339 slower 0 3.816007e+06 3.816010e+06 2.186
22 regular 3 39 239 47 1 0.296 slower 1 3.816011e+06 3.816013e+06 1.891
22 regular 3 40 240 72 1 0.200 faster 1 3.816015e+06 3.816017e+06 2.043
22 regular 3 41 241 72 1 0.409 faster 1 3.816019e+06 3.816021e+06 2.420
22 regular 3 42 242 49 1 0.547 slower 1 3.816024e+06 3.816026e+06 2.569
22 regular 3 43 243 49 1 0.575 slower 1 3.816028e+06 3.816029e+06 1.893
22 regular 3 44 244 50 1 0.394 slower 1 3.816032e+06 3.816033e+06 1.713
22 regular 3 45 245 70 1 0.314 faster 1 3.816034e+06 3.816036e+06 1.812
22 regular 3 46 246 69 1 0.504 faster 1 3.816038e+06 3.816040e+06 1.889
22 regular 3 47 247 51 1 0.564 faster 0 3.816041e+06 3.816043e+06 2.040
22 regular 3 48 248 70 1 0.253 slower 0 3.816045e+06 3.816047e+06 2.358
22 regular 3 49 249 71 1 0.336 faster 1 3.816049e+06 3.816051e+06 1.999
22 regular 3 50 250 70 1 0.467 faster 1 3.816052e+06 3.816054e+06 2.126
22 regular 3 51 251 50 1 0.124 slower 1 3.816056e+06 3.816058e+06 2.317
22 regular 3 52 252 69 1 0.329 faster 1 3.816060e+06 3.816062e+06 1.803
22 regular 3 53 253 69 1 0.144 faster 1 3.816063e+06 3.816065e+06 1.795
22 regular 3 54 254 68 1 0.464 slower 0 3.816067e+06 3.816069e+06 1.892
22 regular 3 55 255 69 1 0.329 slower 0 3.816071e+06 3.816073e+06 1.853
22 regular 3 56 256 50 1 0.176 slower 1 3.816075e+06 3.816076e+06 1.750
22 regular 3 57 257 70 1 0.535 slower 0 3.816078e+06 3.816080e+06 2.016
22 regular 3 58 258 49 1 0.214 slower 1 3.816082e+06 3.816085e+06 2.389
22 regular 3 59 259 70 1 0.463 faster 1 3.816087e+06 3.816090e+06 2.490
22 regular 3 60 260 70 1 0.341 faster 1 3.816092e+06 3.816095e+06 3.025
22 regular 3 61 261 51 1 0.222 faster 0 3.816097e+06 3.816099e+06 2.745
22 regular 3 62 262 70 1 0.486 slower 0 3.816101e+06 3.816103e+06 2.307
22 regular 3 63 263 49 1 0.406 slower 1 3.816105e+06 3.816108e+06 2.911
22 regular 3 64 264 49 1 0.292 faster 0 3.816110e+06 3.816112e+06 2.342
22 regular 3 65 265 72 1 0.202 slower 0 3.816114e+06 3.816116e+06 2.098
22 regular 3 66 266 73 1 0.272 slower 0 3.816117e+06 3.816120e+06 2.597
22 regular 3 67 267 46 1 0.576 slower 1 3.816121e+06 3.816123e+06 2.384
22 regular 3 68 268 47 1 0.495 slower 1 3.816125e+06 3.816128e+06 3.030
22 regular 3 69 269 47 1 0.320 slower 1 3.816129e+06 3.816131e+06 1.646
22 regular 3 70 270 72 1 0.278 faster 1 3.816132e+06 3.816134e+06 2.048
22 regular 3 71 271 72 1 0.248 faster 1 3.816136e+06 3.816138e+06 1.991
22 regular 3 72 272 49 1 0.260 slower 1 3.816140e+06 3.816142e+06 2.122
22 regular 3 73 273 71 1 0.120 slower 0 3.816143e+06 3.816145e+06 2.387
22 regular 3 74 274 72 1 0.326 faster 1 3.816147e+06 3.816148e+06 1.733
22 regular 3 75 275 71 1 0.105 slower 0 3.816150e+06 3.816152e+06 2.151
22 regular 3 76 276 72 1 0.455 slower 0 3.816153e+06 3.816156e+06 2.313
22 regular 3 77 277 47 1 0.438 slower 1 3.816158e+06 3.816159e+06 1.674
22 regular 3 78 278 47 1 0.281 slower 1 3.816161e+06 3.816163e+06 2.202
22 regular 3 79 279 72 1 0.422 faster 1 3.816165e+06 3.816167e+06 1.863
22 regular 3 80 280 48 1 0.556 slower 1 3.816169e+06 3.816171e+06 1.921
22 regular 3 81 281 49 1 0.274 slower 1 3.816172e+06 3.816174e+06 2.038
22 regular 3 82 282 71 1 0.117 faster 1 3.816176e+06 3.816177e+06 1.900
22 regular 3 83 283 70 1 0.128 faster 1 3.816178e+06 3.816180e+06 1.832
22 regular 3 84 284 50 1 0.455 slower 1 3.816181e+06 3.816183e+06 1.991
22 regular 3 85 285 51 1 0.209 slower 1 3.816185e+06 3.816187e+06 2.238
22 regular 3 86 286 51 1 0.553 slower 1 3.816188e+06 3.816190e+06 2.092
22 regular 3 87 287 52 1 0.320 slower 1 3.816192e+06 3.816193e+06 1.747
22 regular 3 88 288 68 1 0.449 faster 1 3.816195e+06 3.816197e+06 2.123
22 regular 3 89 289 53 1 0.562 slower 1 3.816199e+06 3.816201e+06 1.995
22 regular 3 90 290 53 1 0.572 faster 0 3.816202e+06 3.816205e+06 2.683
22 regular 3 91 291 52 1 0.279 slower 1 3.816208e+06 3.816210e+06 2.612
22 regular 3 92 292 67 1 0.385 slower 0 3.816211e+06 3.816213e+06 2.308
22 regular 3 93 293 52 1 0.141 slower 1 3.816215e+06 3.816217e+06 1.971
22 regular 3 94 294 68 1 0.522 faster 1 3.816219e+06 3.816221e+06 2.268
22 regular 3 95 295 67 1 0.407 slower 0 3.816223e+06 3.816225e+06 2.161
22 regular 3 96 296 52 1 0.381 slower 1 3.816226e+06 3.816228e+06 1.885
22 regular 3 97 297 52 1 0.146 faster 0 3.816229e+06 3.816231e+06 2.070
22 regular 3 98 298 51 1 0.419 slower 1 3.816233e+06 3.816235e+06 2.147
22 regular 3 99 299 52 1 0.584 slower 1 3.816237e+06 3.816240e+06 2.268
22 regular 3 100 300 52 1 0.473 slower 1 3.816242e+06 3.816244e+06 1.912
22 irregular 4 1 301 53 1 0.279 faster 0 3.816296e+06 3.816298e+06 1.994
22 irregular 4 2 302 68 1.500000e+00 0.250 faster 1 3.816299e+06 3.816302e+06 2.169
22 irregular 4 3 303 68 1.500000e+00 0.447 faster 1 3.816303e+06 3.816305e+06 2.154
22 irregular 4 4 304 53 2.500000e+00 0.260 faster 0 3.816307e+06 3.816310e+06 3.121
22 irregular 4 5 305 52 1 0.413 faster 0 3.816311e+06 3.816313e+06 1.924
22 irregular 4 6 306 51 1.500000e+00 0.462 faster 0 3.816315e+06 3.816317e+06 2.609
22 irregular 4 7 307 50 1 0.397 slower 1 3.816319e+06 3.816321e+06 2.363
22 irregular 4 8 308 70 1.500000e+00 0.432 faster 1 3.816323e+06 3.816325e+06 2.165
22 irregular 4 9 309 69 3 0.599 faster 1 3.816328e+06 3.816332e+06 4.206
22 irregular 4 10 310 51 2 0.389 faster 0 3.816334e+06 3.816337e+06 2.893
22 irregular 4 11 311 70 1.500000e+00 0.596 slower 0 3.816339e+06 3.816342e+06 2.724
22 irregular 4 12 312 49 2 0.226 slower 1 3.816343e+06 3.816346e+06 2.886
22 irregular 4 13 313 50 3 0.309 faster 0 3.816348e+06 3.816351e+06 3.658
22 irregular 4 14 314 49 3 0.567 faster 0 3.816353e+06 3.816357e+06 3.931
22 irregular 4 15 315 48 1.500000e+00 0.370 slower 1 3.816359e+06 3.816361e+06 2.475
22 irregular 4 16 316 72 1 0.232 slower 0 3.816362e+06 3.816365e+06 2.406
22 irregular 4 17 317 73 2 0.418 faster 1 3.816366e+06 3.816369e+06 2.906
22 irregular 4 18 318 48 3 0.201 slower 1 3.816370e+06 3.816374e+06 3.910
22 irregular 4 19 319 72 2.500000e+00 0.272 faster 1 3.816376e+06 3.816379e+06 3.328
22 irregular 4 20 320 71 3 0.305 faster 1 3.816380e+06 3.816384e+06 3.958
22 irregular 4 21 321 71 2 0.303 faster 1 3.816387e+06 3.816389e+06 2.715
22 irregular 4 22 322 50 3 0.391 slower 1 3.816391e+06 3.816395e+06 4.098
22 irregular 4 23 323 50 1.500000e+00 0.444 slower 1 3.816397e+06 3.816399e+06 2.698
22 irregular 4 24 324 69 1.500000e+00 0.231 faster 1 3.816401e+06 3.816403e+06 2.344
22 irregular 4 25 325 51 1 0.573 slower 1 3.816405e+06 3.816407e+06 2.545
22 irregular 4 26 326 52 2.500000e+00 0.121 faster 0 3.816409e+06 3.816412e+06 3.202
22 irregular 4 27 327 69 1 0.161 slower 0 3.816413e+06 3.816415e+06 2.368
22 irregular 4 28 328 50 2.500000e+00 0.524 faster 0 3.816417e+06 3.816420e+06 3.361
22 irregular 4 29 329 71 1 0.533 faster 1 3.816422e+06 3.816424e+06 2.223
22 irregular 4 30 330 71 1.500000e+00 0.595 faster 1 3.816426e+06 3.816428e+06 2.391
22 irregular 4 31 331 70 1 0.204 faster 1 3.816430e+06 3.816431e+06 1.854
22 irregular 4 32 332 70 2.500000e+00 0.598 faster 1 3.816433e+06 3.816436e+06 3.415
22 irregular 4 33 333 69 3 0.180 faster 1 3.816437e+06 3.816441e+06 4.076
22 irregular 4 34 334 51 2 0.500 slower 1 3.816443e+06 3.816446e+06 2.819
22 irregular 4 35 335 68 2.500000e+00 0.178 faster 1 3.816447e+06 3.816450e+06 3.337
22 irregular 4 36 336 52 1 0.309 slower 1 3.816452e+06 3.816454e+06 1.944
22 irregular 4 37 337 53 1.500000e+00 0.515 slower 1 3.816457e+06 3.816459e+06 2.395
22 irregular 4 38 338 67 3 0.274 slower 0 3.816461e+06 3.816465e+06 3.915
22 irregular 4 39 339 68 2.500000e+00 0.152 faster 1 3.816465e+06 3.816469e+06 3.294
22 irregular 4 40 340 67 2 0.482 slower 0 3.816470e+06 3.816473e+06 2.950
22 irregular 4 41 341 52 1.500000e+00 0.109 slower 1 3.816474e+06 3.816477e+06 2.470
22 irregular 4 42 342 52 3 0.200 faster 0 3.816478e+06 3.816482e+06 3.651
22 irregular 4 43 343 51 2.500000e+00 0.472 slower 1 3.816483e+06 3.816487e+06 3.428
22 irregular 4 44 344 52 1.500000e+00 0.528 slower 1 3.816489e+06 3.816491e+06 2.502
22 irregular 4 45 345 68 1 0.354 slower 0 3.816493e+06 3.816495e+06 1.983
22 irregular 4 46 346 51 2 0.350 slower 1 3.816496e+06 3.816499e+06 2.796
22 irregular 4 47 347 68 3 0.107 faster 1 3.816501e+06 3.816504e+06 3.725
22 irregular 4 48 348 68 3 0.544 faster 1 3.816505e+06 3.816509e+06 3.916
22 irregular 4 49 349 53 1 0.124 faster 0 3.816512e+06 3.816514e+06 1.930
22 irregular 4 50 350 68 2 0.366 faster 1 3.816515e+06 3.816518e+06 2.864
22 irregular 4 51 351 68 1 0.184 faster 1 3.816520e+06 3.816522e+06 1.886
22 irregular 4 52 352 67 1 0.198 faster 1 3.816523e+06 3.816525e+06 1.842
22 irregular 4 53 353 67 2.500000e+00 0.247 slower 0 3.816526e+06 3.816529e+06 3.588
22 irregular 4 54 354 52 3 0.304 faster 0 3.816531e+06 3.816535e+06 3.849
22 irregular 4 55 355 51 2.500000e+00 0.186 slower 1 3.816536e+06 3.816540e+06 3.877
22 irregular 4 56 356 52 3 0.515 slower 1 3.816542e+06 3.816546e+06 3.963
22 irregular 4 57 357 68 1 0.373 faster 1 3.816548e+06 3.816550e+06 2.436
22 irregular 4 58 358 53 1.500000e+00 0.265 faster 0 3.816552e+06 3.816554e+06 2.340
22 irregular 4 59 359 52 1 0.581 slower 1 3.816556e+06 3.816558e+06 2.195
22 irregular 4 60 360 68 2.500000e+00 0.431 faster 1 3.816559e+06 3.816562e+06 3.315
22 irregular 4 61 361 53 2.500000e+00 0.581 faster 0 3.816564e+06 3.816567e+06 3.360
22 irregular 4 62 362 68 3 0.201 faster 1 3.816568e+06 3.816572e+06 3.885
22 irregular 4 63 363 68 3 0.217 faster 1 3.816574e+06 3.816577e+06 3.732
22 irregular 4 64 364 67 1.500000e+00 0.432 faster 1 3.816579e+06 3.816582e+06 2.977
22 irregular 4 65 365 67 1 0.304 slower 0 3.816584e+06 3.816586e+06 2.230
22 irregular 4 66 366 68 2 0.427 faster 1 3.816587e+06 3.816590e+06 3.489
22 irregular 4 67 367 67 1.500000e+00 0.263 slower 0 3.816592e+06 3.816595e+06 2.897
22 irregular 4 68 368 68 2.500000e+00 0.460 slower 0 3.816597e+06 3.816600e+06 3.557
22 irregular 4 69 369 51 2 0.465 slower 1 3.816602e+06 3.816605e+06 2.860
22 irregular 4 70 370 69 2 0.304 faster 1 3.816608e+06 3.816610e+06 2.625
22 irregular 4 71 371 68 2.500000e+00 0.431 slower 0 3.816612e+06 3.816615e+06 3.372
22 irregular 4 72 372 69 1.500000e+00 0.320 faster 1 3.816617e+06 3.816619e+06 2.377
22 irregular 4 73 373 51 2.500000e+00 0.150 slower 1 3.816621e+06 3.816624e+06 3.284
22 irregular 4 74 374 52 3 0.385 slower 1 3.816625e+06 3.816629e+06 3.802
22 irregular 4 75 375 68 2 0.368 faster 1 3.816630e+06 3.816634e+06 3.344
22 irregular 4 76 376 53 3 0.143 slower 1 3.816635e+06 3.816639e+06 3.984
22 irregular 4 77 377 53 1.500000e+00 0.127 slower 1 3.816641e+06 3.816644e+06 3.279
22 irregular 4 78 378 54 1 0.158 faster 0 3.816645e+06 3.816647e+06 1.849
22 irregular 4 79 379 67 2 0.350 faster 1 3.816649e+06 3.816652e+06 3.430
22 irregular 4 80 380 53 2 0.210 faster 0 3.816654e+06 3.816656e+06 2.836
22 irregular 4 81 381 52 2.500000e+00 0.207 faster 0 3.816657e+06 3.816661e+06 3.390
22 irregular 4 82 382 69 3 0.196 faster 1 3.816662e+06 3.816666e+06 3.778
22 irregular 4 83 383 52 1 0.392 slower 1 3.816668e+06 3.816670e+06 1.962
22 irregular 4 84 384 68 1.500000e+00 0.224 faster 1 3.816671e+06 3.816674e+06 2.330
22 irregular 4 85 385 53 1.500000e+00 0.310 slower 1 3.816675e+06 3.816678e+06 2.541
22 irregular 4 86 386 53 2 0.261 faster 0 3.816679e+06 3.816682e+06 2.645
22 irregular 4 87 387 52 2 0.162 faster 0 3.816684e+06 3.816687e+06 3.189
22 irregular 4 88 388 69 2 0.350 faster 1 3.816688e+06 3.816691e+06 2.598
22 irregular 4 89 389 68 2.500000e+00 0.297 faster 1 3.816693e+06 3.816696e+06 3.232
22 irregular 4 90 390 52 2.500000e+00 0.330 slower 1 3.816697e+06 3.816700e+06 3.453
22 irregular 4 91 391 67 2.500000e+00 0.471 faster 1 3.816702e+06 3.816706e+06 3.158
22 irregular 4 92 392 67 2 0.260 faster 1 3.816708e+06 3.816711e+06 2.721
22 irregular 4 93 393 54 2 0.429 faster 0 3.816713e+06 3.816716e+06 2.864
22 irregular 4 94 394 67 1 0.574 slower 0 3.816718e+06 3.816720e+06 1.898
22 irregular 4 95 395 52 1 0.369 faster 0 3.816722e+06 3.816723e+06 1.798
22 irregular 4 96 396 51 2 0.181 none 2 3.816724e+06 3.816729e+06 4.999
22 irregular 4 97 397 69 3 0.241 slower 0 3.816730e+06 3.816734e+06 3.847
22 irregular 4 98 398 50 3 0.177 faster 0 3.816735e+06 3.816739e+06 3.746
22 irregular 4 99 399 49 2.500000e+00 0.358 faster 0 3.816740e+06 3.816743e+06 3.220
22 irregular 4 100 400 48 1.500000e+00 0.104 slower 1 3.816744e+06 3.816747e+06 2.558
22 regular 5 1 401 56 1.500000e+00 0.153 faster 0 3.883462e+06 3.883464e+06 2.533
22 regular 5 2 402 54 1.500000e+00 0.199 faster 0 3.883465e+06 3.883467e+06 1.962
22 regular 5 3 403 52 1.500000e+00 0.240 faster 0 3.883468e+06 3.883471e+06 2.760
22 regular 5 4 404 50 1.500000e+00 0.146 faster 0 3.883472e+06 3.883475e+06 2.240
22 regular 5 5 405 48 1.500000e+00 0.583 faster 0 3.883476e+06 3.883479e+06 2.373
22 regular 5 6 406 74 1.500000e+00 0.529 faster 1 3.883480e+06 3.883483e+06 2.223
22 regular 5 7 407 74 1.500000e+00 0.143 faster 1 3.883484e+06 3.883486e+06 2.496
22 regular 5 8 408 48 1.500000e+00 0.355 slower 1 3.883488e+06 3.883490e+06 2.137
22 regular 5 9 409 48 1.500000e+00 0.464 slower 1 3.883492e+06 3.883494e+06 2.183
22 regular 5 10 410 50 1.500000e+00 0.147 faster 0 3.883496e+06 3.883498e+06 2.493
22 regular 5 11 411 48 1.500000e+00 0.580 slower 1 3.883500e+06 3.883503e+06 2.993
22 regular 5 12 412 48 1.500000e+00 0.475 faster 0 3.883505e+06 3.883507e+06 2.484
22 regular 5 13 413 74 1.500000e+00 0.504 faster 1 3.883509e+06 3.883511e+06 2.194
22 regular 5 14 414 72 1.500000e+00 0.275 faster 1 3.883512e+06 3.883515e+06 2.077
22 regular 5 15 415 72 1.500000e+00 0.323 faster 1 3.883516e+06 3.883518e+06 2.090
22 regular 5 16 416 49 1.500000e+00 0.271 slower 1 3.883520e+06 3.883522e+06 2.351
22 regular 5 17 417 49 1.500000e+00 0.426 faster 0 3.883524e+06 3.883526e+06 2.542
22 regular 5 18 418 48 1.500000e+00 0.522 slower 1 3.883527e+06 3.883529e+06 2.133
22 regular 5 19 419 71 1.500000e+00 0.377 faster 1 3.883531e+06 3.883533e+06 2.115
22 regular 5 20 420 71 1.500000e+00 0.274 faster 1 3.883534e+06 3.883536e+06 2.262
22 regular 5 21 421 70 1.500000e+00 0.251 faster 1 3.883538e+06 3.883540e+06 2.361
22 regular 5 22 422 50 1.500000e+00 0.400 slower 1 3.883542e+06 3.883544e+06 2.188
22 regular 5 23 423 69 1.500000e+00 0.339 faster 1 3.883545e+06 3.883547e+06 2.074
22 regular 5 24 424 69 1.500000e+00 0.511 faster 1 3.883549e+06 3.883551e+06 2.160
22 regular 5 25 425 52 1.500000e+00 0.581 slower 1 3.883553e+06 3.883555e+06 2.330
22 regular 5 26 426 52 1.500000e+00 0.524 faster 0 3.883557e+06 3.883559e+06 2.497
22 regular 5 27 427 51 1.500000e+00 0.168 slower 1 3.883560e+06 3.883562e+06 2.545
22 regular 5 28 428 68 1.500000e+00 0.146 slower 0 3.883564e+06 3.883566e+06 2.374
22 regular 5 29 429 51 1.500000e+00 0.434 slower 1 3.883568e+06 3.883570e+06 2.402
22 regular 5 30 430 51 1.500000e+00 0.267 slower 1 3.883571e+06 3.883573e+06 2.274
22 regular 5 31 431 68 1.500000e+00 0.217 faster 1 3.883575e+06 3.883577e+06 2.319
22 regular 5 32 432 68 1.500000e+00 0.198 faster 1 3.883578e+06 3.883580e+06 2.188
22 regular 5 33 433 67 1.500000e+00 0.575 faster 1 3.883581e+06 3.883584e+06 2.354
22 regular 5 34 434 53 1.500000e+00 0.207 faster 0 3.883585e+06 3.883587e+06 2.590
22 regular 5 35 435 68 1.500000e+00 0.106 slower 0 3.883589e+06 3.883591e+06 2.553
22 regular 5 36 436 51 1.500000e+00 0.146 slower 1 3.883593e+06 3.883595e+06 2.358
22 regular 5 37 437 52 1.500000e+00 0.584 faster 0 3.883597e+06 3.883599e+06 2.805
22 regular 5 38 438 69 1.500000e+00 0.316 faster 1 3.883600e+06 3.883603e+06 2.337
22 regular 5 39 439 69 1.500000e+00 0.391 slower 0 3.883604e+06 3.883607e+06 2.745
22 regular 5 40 440 70 1.500000e+00 0.119 faster 1 3.883608e+06 3.883611e+06 2.244
22 regular 5 41 441 69 1.500000e+00 0.596 slower 0 3.883612e+06 3.883615e+06 2.466
22 regular 5 42 442 70 1.500000e+00 0.441 faster 1 3.883616e+06 3.883619e+06 2.490
22 regular 5 43 443 70 1.500000e+00 0.161 faster 1 3.883620e+06 3.883623e+06 2.779
22 regular 5 44 444 51 1.500000e+00 0.515 slower 1 3.883624e+06 3.883627e+06 2.499
22 regular 5 45 445 69 1.500000e+00 0.300 slower 0 3.883628e+06 3.883631e+06 2.881
22 regular 5 46 446 70 1.500000e+00 0.595 faster 1 3.883633e+06 3.883635e+06 2.400
22 regular 5 47 447 69 1.500000e+00 0.566 faster 1 3.883637e+06 3.883639e+06 2.088
22 regular 5 48 448 51 1.500000e+00 0.344 slower 1 3.883640e+06 3.883643e+06 2.895
22 regular 5 49 449 68 1.500000e+00 0.585 slower 0 3.883644e+06 3.883647e+06 2.988
22 regular 5 50 450 51 1.500000e+00 0.267 slower 1 3.883648e+06 3.883651e+06 2.243
22 regular 5 51 451 69 1.500000e+00 0.241 faster 1 3.883652e+06 3.883654e+06 2.238
22 regular 5 52 452 68 1.500000e+00 0.505 faster 1 3.883656e+06 3.883658e+06 2.426
22 regular 5 53 453 52 1.500000e+00 0.219 slower 1 3.883659e+06 3.883662e+06 2.593
22 regular 5 54 454 67 1.500000e+00 0.297 faster 1 3.883663e+06 3.883665e+06 2.330
22 regular 5 55 455 67 1.500000e+00 0.139 faster 1 3.883666e+06 3.883669e+06 2.675
22 regular 5 56 456 54 1.500000e+00 0.186 faster 0 3.883670e+06 3.883673e+06 2.509
22 regular 5 57 457 53 1.500000e+00 0.118 slower 1 3.883674e+06 3.883677e+06 2.476
22 regular 5 58 458 53 1.500000e+00 0.326 slower 1 3.883678e+06 3.883680e+06 2.234
22 regular 5 59 459 54 1.500000e+00 0.336 slower 1 3.883682e+06 3.883685e+06 3.002
22 regular 5 60 460 66 1.500000e+00 0.124 faster 1 3.883687e+06 3.883689e+06 2.318
22 regular 5 61 461 65 1.500000e+00 0.161 slower 0 3.883690e+06 3.883693e+06 3.260
22 regular 5 62 462 54 1.500000e+00 0.287 slower 1 3.883694e+06 3.883697e+06 2.568
22 regular 5 63 463 54 1.500000e+00 0.584 slower 1 3.883699e+06 3.883701e+06 2.466
22 regular 5 64 464 65 1.500000e+00 0.401 faster 1 3.883703e+06 3.883705e+06 2.457
22 regular 5 65 465 55 1.500000e+00 0.484 faster 0 3.883707e+06 3.883709e+06 2.261
22 regular 5 66 466 54 1.500000e+00 0.161 slower 1 3.883710e+06 3.883713e+06 2.372
22 regular 5 67 467 55 1.500000e+00 0.131 faster 0 3.883713e+06 3.883716e+06 2.247
22 regular 5 68 468 66 1.500000e+00 0.580 faster 1 3.883718e+06 3.883720e+06 2.790
22 regular 5 69 469 54 1.500000e+00 0.381 faster 0 3.883722e+06 3.883725e+06 2.735
22 regular 5 70 470 53 1.500000e+00 0.311 faster 0 3.883726e+06 3.883729e+06 2.418
22 regular 5 71 471 52 1.500000e+00 0.146 faster 0 3.883730e+06 3.883732e+06 2.122
22 regular 5 72 472 51 1.500000e+00 0.525 faster 0 3.883733e+06 3.883736e+06 2.281
22 regular 5 73 473 70 1.500000e+00 0.239 faster 1 3.883737e+06 3.883739e+06 2.284
22 regular 5 74 474 69 1.500000e+00 0.576 slower 0 3.883741e+06 3.883744e+06 2.904
22 regular 5 75 475 70 1.500000e+00 0.117 faster 1 3.883744e+06 3.883748e+06 3.620
22 regular 5 76 476 50 1.500000e+00 0.533 slower 1 3.883750e+06 3.883752e+06 2.404
22 regular 5 77 477 51 1.500000e+00 0.517 slower 1 3.883754e+06 3.883756e+06 2.299
22 regular 5 78 478 51 1.500000e+00 0.263 slower 1 3.883758e+06 3.883760e+06 2.839
22 regular 5 79 479 68 1.500000e+00 0.209 faster 1 3.883762e+06 3.883764e+06 2.435
22 regular 5 80 480 52 1.500000e+00 0.526 faster 0 3.883766e+06 3.883768e+06 2.375
22 regular 5 81 481 51 1.500000e+00 0.318 faster 0 3.883770e+06 3.883773e+06 2.716
22 regular 5 82 482 50 1.500000e+00 0.217 slower 1 3.883774e+06 3.883777e+06 3.162
22 regular 5 83 483 69 1.500000e+00 0.389 slower 0 3.883779e+06 3.883782e+06 2.869
22 regular 5 84 484 70 1.500000e+00 0.292 faster 1 3.883783e+06 3.883786e+06 2.434
22 regular 5 85 485 70 1.500000e+00 0.600 faster 1 3.883788e+06 3.883790e+06 2.442
22 regular 5 86 486 51 1.500000e+00 0.227 slower 1 3.883791e+06 3.883794e+06 2.629
22 regular 5 87 487 69 1.500000e+00 0.439 faster 1 3.883795e+06 3.883798e+06 2.886
22 regular 5 88 488 68 1.500000e+00 0.358 faster 1 3.883800e+06 3.883802e+06 2.212
22 regular 5 89 489 68 1.500000e+00 0.573 slower 0 3.883803e+06 3.883806e+06 2.460
22 regular 5 90 490 69 1.500000e+00 0.202 faster 1 3.883807e+06 3.883809e+06 2.212
22 regular 5 91 491 68 1.500000e+00 0.450 faster 1 3.883811e+06 3.883813e+06 2.382
22 regular 5 92 492 52 1.500000e+00 0.326 slower 1 3.883815e+06 3.883817e+06 2.275
22 regular 5 93 493 67 1.500000e+00 0.368 faster 1 3.883818e+06 3.883821e+06 2.395
22 regular 5 94 494 53 1.500000e+00 0.258 faster 0 3.883822e+06 3.883824e+06 2.282
22 regular 5 95 495 52 1.500000e+00 0.204 none 2 3.883826e+06 3.883830e+06 4.500
22 regular 5 96 496 68 1.500000e+00 0.209 slower 0 3.883831e+06 3.883834e+06 2.544
22 regular 5 97 497 69 1.500000e+00 0.471 faster 1 3.883835e+06 3.883838e+06 2.569
22 regular 5 98 498 68 1.500000e+00 0.150 faster 1 3.883840e+06 3.883843e+06 2.833
22 regular 5 99 499 68 1.500000e+00 0.262 slower 0 3.883844e+06 3.883847e+06 3.364
22 regular 5 100 500 51 1.500000e+00 0.321 faster 0 3.883849e+06 3.883851e+06 2.557
22 irregular 6 1 501 50 2.500000e+00 0.271 faster 0 3.883930e+06 3.883933e+06 3.149
22 irregular 6 2 502 49 2.500000e+00 0.442 faster 0 3.883934e+06 3.883937e+06 3.053
22 irregular 6 3 503 48 2 0.413 faster 0 3.883938e+06 3.883941e+06 2.707
22 irregular 6 4 504 73 2.500000e+00 0.474 faster 1 3.883943e+06 3.883946e+06 3.103
22 irregular 6 5 505 72 1 0.553 slower 0 3.883948e+06 3.883950e+06 2.244
22 irregular 6 6 506 47 3 0.586 slower 1 3.883952e+06 3.883955e+06 3.815
22 irregular 6 7 507 73 2.500000e+00 0.373 faster 1 3.883957e+06 3.883960e+06 3.211
22 irregular 6 8 508 48 3 0.384 slower 1 3.883961e+06 3.883965e+06 3.890
22 irregular 6 9 509 72 1.500000e+00 0.139 faster 1 3.883966e+06 3.883968e+06 2.534
22 irregular 6 10 510 49 2.500000e+00 0.373 slower 1 3.883970e+06 3.883973e+06 3.225
22 irregular 6 11 511 49 2 0.568 slower 1 3.883974e+06 3.883978e+06 3.043
22 irregular 6 12 512 70 3 0.338 faster 1 3.883979e+06 3.883983e+06 3.864
22 irregular 6 13 513 70 1.500000e+00 0.245 slower 0 3.883984e+06 3.883987e+06 2.743
22 irregular 6 14 514 71 1.500000e+00 0.143 faster 1 3.883988e+06 3.883991e+06 2.638
22 irregular 6 15 515 50 1.500000e+00 0.477 slower 1 3.883992e+06 3.883996e+06 3.068
22 irregular 6 16 516 70 2.500000e+00 0.268 faster 1 3.883997e+06 3.884001e+06 3.922
22 irregular 6 17 517 69 1.500000e+00 0.436 faster 1 3.884002e+06 3.884005e+06 2.848
22 irregular 6 18 518 51 1 0.272 faster 0 3.884007e+06 3.884009e+06 1.951
22 irregular 6 19 519 50 3 0.172 slower 1 3.884010e+06 3.884014e+06 3.744
22 irregular 6 20 520 51 3 0.251 faster 0 3.884015e+06 3.884020e+06 4.198
22 irregular 6 21 521 70 2 0.108 faster 1 3.884021e+06 3.884024e+06 2.674
22 irregular 6 22 522 50 1 0.335 slower 1 3.884025e+06 3.884027e+06 2.060
22 irregular 6 23 523 51 2.500000e+00 0.296 slower 1 3.884029e+06 3.884032e+06 3.313
22 irregular 6 24 524 69 3 0.402 faster 1 3.884033e+06 3.884037e+06 3.700
22 irregular 6 25 525 52 1 0.363 slower 1 3.884039e+06 3.884040e+06 1.987
22 irregular 6 26 526 52 1 0.302 faster 0 3.884041e+06 3.884043e+06 1.826
22 irregular 6 27 527 69 1 0.119 faster 1 3.884044e+06 3.884046e+06 2.009
22 irregular 6 28 528 52 1 0.156 slower 1 3.884047e+06 3.884049e+06 1.930
22 irregular 6 29 529 68 3 0.292 slower 0 3.884050e+06 3.884054e+06 3.975
22 irregular 6 30 530 69 2 0.274 faster 1 3.884055e+06 3.884058e+06 2.838
22 irregular 6 31 531 52 1.500000e+00 0.496 slower 1 3.884060e+06 3.884062e+06 2.206
22 irregular 6 32 532 68 1.500000e+00 0.321 faster 1 3.884063e+06 3.884066e+06 2.488
22 irregular 6 33 533 53 2.500000e+00 0.246 slower 1 3.884067e+06 3.884070e+06 3.217
22 irregular 6 34 534 67 3 0.512 faster 1 3.884072e+06 3.884076e+06 3.787
22 irregular 6 35 535 54 2.500000e+00 0.448 faster 0 3.884077e+06 3.884081e+06 3.244
22 irregular 6 36 536 67 2.500000e+00 0.126 faster 1 3.884082e+06 3.884085e+06 3.234
22 irregular 6 37 537 53 1 0.533 slower 1 3.884087e+06 3.884089e+06 1.962
22 irregular 6 38 538 54 1 0.466 faster 0 3.884091e+06 3.884094e+06 2.358
22 irregular 6 39 539 53 2 0.480 faster 0 3.884095e+06 3.884098e+06 2.849
22 irregular 6 40 540 52 2 0.369 slower 1 3.884099e+06 3.884103e+06 3.621
22 irregular 6 41 541 68 2.500000e+00 0.426 slower 0 3.884105e+06 3.884109e+06 4.068
22 irregular 6 42 542 51 2 0.496 slower 1 3.884110e+06 3.884114e+06 3.459
22 irregular 6 43 543 52 3 0.562 faster 0 3.884115e+06 3.884120e+06 4.518
22 irregular 6 44 544 69 1 0.553 faster 1 3.884122e+06 3.884124e+06 2.254
22 irregular 6 45 545 51 1 0.514 faster 0 3.884126e+06 3.884128e+06 2.103
22 irregular 6 46 546 50 1.500000e+00 0.589 slower 1 3.884129e+06 3.884132e+06 2.508
22 irregular 6 47 547 51 3 0.447 slower 1 3.884134e+06 3.884138e+06 4.052
22 irregular 6 48 548 69 1 0.582 faster 1 3.884140e+06 3.884142e+06 1.976
22 irregular 6 49 549 52 1.500000e+00 0.459 slower 1 3.884144e+06 3.884146e+06 2.335
22 irregular 6 50 550 52 1.500000e+00 0.501 slower 1 3.884148e+06 3.884151e+06 2.601
22 irregular 6 51 551 67 3 0.416 faster 1 3.884152e+06 3.884156e+06 3.757
22 irregular 6 52 552 53 2.500000e+00 0.273 faster 0 3.884157e+06 3.884161e+06 3.406
22 irregular 6 53 553 68 2 0.346 faster 1 3.884162e+06 3.884166e+06 3.175
22 irregular 6 54 554 53 3 0.180 faster 0 3.884166e+06 3.884170e+06 4.005
22 irregular 6 55 555 52 2 0.329 faster 0 3.884172e+06 3.884175e+06 2.988
22 irregular 6 56 556 51 3 0.187 slower 1 3.884176e+06 3.884180e+06 3.938
22 irregular 6 57 557 51 1.500000e+00 0.287 slower 1 3.884182e+06 3.884185e+06 2.921
22 irregular 6 58 558 52 1.500000e+00 0.293 slower 1 3.884186e+06 3.884189e+06 2.299
22 irregular 6 59 559 68 2 0.406 faster 1 3.884191e+06 3.884193e+06 2.682
22 irregular 6 60 560 53 2 0.102 faster 0 3.884195e+06 3.884198e+06 3.367
22 irregular 6 61 561 68 3 0.382 faster 1 3.884199e+06 3.884204e+06 4.467
22 irregular 6 62 562 68 1 0.276 faster 1 3.884204e+06 3.884207e+06 2.519
22 irregular 6 63 563 53 2 0.446 faster 0 3.884209e+06 3.884212e+06 3.006
22 irregular 6 64 564 68 1 0.235 slower 0 3.884213e+06 3.884215e+06 2.094
22 irregular 6 65 565 51 1.500000e+00 0.238 slower 1 3.884217e+06 3.884220e+06 2.905
22 irregular 6 66 566 69 2 0.383 faster 1 3.884222e+06 3.884224e+06 2.699
22 irregular 6 67 567 68 2.500000e+00 0.521 faster 1 3.884226e+06 3.884230e+06 3.780
22 irregular 6 68 568 52 2 0.487 slower 1 3.884232e+06 3.884235e+06 2.847
22 irregular 6 69 569 67 1.500000e+00 0.364 faster 1 3.884237e+06 3.884240e+06 2.313
22 irregular 6 70 570 67 3 0.498 faster 1 3.884241e+06 3.884245e+06 3.672
22 irregular 6 71 571 66 1.500000e+00 0.521 faster 1 3.884246e+06 3.884249e+06 2.695
22 irregular 6 72 572 66 2.500000e+00 0.598 faster 1 3.884250e+06 3.884254e+06 3.272
22 irregular 6 73 573 65 2.500000e+00 0.368 faster 1 3.884255e+06 3.884259e+06 3.959
22 irregular 6 74 574 65 1 0.418 faster 1 3.884261e+06 3.884263e+06 2.205
22 irregular 6 75 575 56 3 0.541 faster 0 3.884265e+06 3.884268e+06 3.148
22 irregular 6 76 576 55 2 0.118 faster 0 3.884269e+06 3.884272e+06 3.024
22 irregular 6 77 577 54 2.500000e+00 0.438 slower 1 3.884274e+06 3.884278e+06 3.971
22 irregular 6 78 578 66 1.500000e+00 0.129 faster 1 3.884279e+06 3.884282e+06 2.830
22 irregular 6 79 579 65 3 0.143 faster 1 3.884284e+06 3.884288e+06 4.201
22 irregular 6 80 580 65 2 0.177 faster 1 3.884289e+06 3.884293e+06 3.592
22 irregular 6 81 581 64 1 0.495 faster 1 3.884294e+06 3.884296e+06 1.920
22 irregular 6 82 582 64 1 0.575 faster 1 3.884298e+06 3.884300e+06 1.886
22 irregular 6 83 583 63 1 0.349 faster 1 3.884302e+06 3.884304e+06 1.739
22 irregular 6 84 584 63 2 0.230 slower 0 3.884305e+06 3.884308e+06 2.679
22 irregular 6 85 585 56 1 0.596 faster 0 3.884310e+06 3.884312e+06 1.676
22 irregular 6 86 586 65 3 0.102 slower 0 3.884314e+06 3.884317e+06 3.878
22 irregular 6 87 587 54 1.500000e+00 0.340 faster 0 3.884319e+06 3.884321e+06 2.521
22 irregular 6 88 588 67 2.500000e+00 0.436 faster 1 3.884323e+06 3.884326e+06 3.437
22 irregular 6 89 589 66 2 0.296 faster 1 3.884328e+06 3.884331e+06 3.196
22 irregular 6 90 590 54 1 0.210 slower 1 3.884332e+06 3.884335e+06 2.933
22 irregular 6 91 591 55 1.500000e+00 0.418 slower 1 3.884337e+06 3.884339e+06 2.259
22 irregular 6 92 592 55 2.500000e+00 0.430 faster 0 3.884341e+06 3.884344e+06 3.260
22 irregular 6 93 593 54 2.500000e+00 0.408 slower 1 3.884346e+06 3.884349e+06 3.695
22 irregular 6 94 594 65 1.500000e+00 0.132 slower 0 3.884350e+06 3.884353e+06 2.823
22 irregular 6 95 595 54 3 0.496 slower 1 3.884355e+06 3.884359e+06 3.775
22 irregular 6 96 596 66 3 0.389 faster 1 3.884360e+06 3.884364e+06 3.826
22 irregular 6 97 597 65 2 0.168 slower 0 3.884365e+06 3.884369e+06 3.486
22 irregular 6 98 598 66 2 0.597 faster 1 3.884370e+06 3.884373e+06 2.974
22 irregular 6 99 599 66 1.500000e+00 0.190 faster 1 3.884374e+06 3.884377e+06 2.332
22 irregular 6 100 600 65 2.500000e+00 0.524 faster 1 3.884378e+06 3.884381e+06 3.465
22 regular 7 1 601 65 2.500000e+00 0.485 faster 1 3.884515e+06 3.884518e+06 3.124
22 regular 7 2 602 56 2.500000e+00 0.248 faster 0 3.884519e+06 3.884522e+06 3.102
22 regular 7 3 603 65 2.500000e+00 0.220 faster 1 3.884524e+06 3.884527e+06 3.243
22 regular 7 4 604 55 2.500000e+00 0.113 faster 0 3.884528e+06 3.884531e+06 3.314
22 regular 7 5 605 54 2.500000e+00 0.123 none 2 3.884533e+06 3.884538e+06 5.500
22 regular 7 6 606 54 2.500000e+00 0.501 faster 0 3.884540e+06 3.884543e+06 3.478
22 regular 7 7 607 67 2.500000e+00 0.217 faster 1 3.884545e+06 3.884548e+06 3.047
22 regular 7 8 608 66 2.500000e+00 0.238 faster 1 3.884549e+06 3.884553e+06 3.181
22 regular 7 9 609 54 2.500000e+00 0.378 faster 0 3.884554e+06 3.884557e+06 3.062
22 regular 7 10 610 53 2.500000e+00 0.130 faster 0 3.884560e+06 3.884563e+06 3.555
22 regular 7 11 611 52 2.500000e+00 0.196 faster 0 3.884565e+06 3.884568e+06 3.370
22 regular 7 12 612 69 2.500000e+00 0.519 faster 1 3.884570e+06 3.884573e+06 3.009
22 regular 7 13 613 68 2.500000e+00 0.346 faster 1 3.884574e+06 3.884578e+06 3.021
22 regular 7 14 614 68 2.500000e+00 0.579 faster 1 3.884579e+06 3.884583e+06 3.531
22 regular 7 15 615 53 2.500000e+00 0.111 faster 0 3.884584e+06 3.884587e+06 3.356
22 regular 7 16 616 68 2.500000e+00 0.584 faster 1 3.884589e+06 3.884593e+06 3.477
22 regular 7 17 617 52 2.500000e+00 0.379 faster 0 3.884594e+06 3.884597e+06 2.940
22 regular 7 18 618 51 2.500000e+00 0.123 slower 1 3.884598e+06 3.884602e+06 3.484
22 regular 7 19 619 52 2.500000e+00 0.397 faster 0 3.884604e+06 3.884607e+06 3.065
22 regular 7 20 620 51 2.500000e+00 0.527 faster 0 3.884608e+06 3.884612e+06 3.250
22 regular 7 21 621 50 2.500000e+00 0.179 faster 0 3.884615e+06 3.884618e+06 3.072
22 regular 7 22 622 49 2.500000e+00 0.335 none 2 3.884622e+06 3.884627e+06 5.500
22 regular 7 23 623 71 2.500000e+00 0.274 faster 1 3.884628e+06 3.884631e+06 3.336
22 regular 7 24 624 71 2.500000e+00 0.231 faster 1 3.884633e+06 3.884636e+06 3.141
22 regular 7 25 625 50 2.500000e+00 0.420 faster 0 3.884639e+06 3.884642e+06 3.071
22 regular 7 26 626 49 2.500000e+00 0.341 slower 1 3.884645e+06 3.884648e+06 3.753
22 regular 7 27 627 71 2.500000e+00 0.507 none 2 3.884649e+06 3.884655e+06 5.499
22 regular 7 28 628 49 2.500000e+00 0.148 slower 1 3.884656e+06 3.884659e+06 3.418
22 regular 7 29 629 50 2.500000e+00 0.258 slower 1 3.884661e+06 3.884665e+06 3.739
22 regular 7 30 630 50 2.500000e+00 0.107 slower 1 3.884666e+06 3.884670e+06 3.417
22 regular 7 31 631 51 2.500000e+00 0.276 none 2 3.884671e+06 3.884677e+06 5.500
22 regular 7 32 632 69 2.500000e+00 0.136 faster 1 3.884678e+06 3.884682e+06 3.240
22 regular 7 33 633 69 2.500000e+00 0.450 faster 1 3.884683e+06 3.884686e+06 3.083
22 regular 7 34 634 52 2.500000e+00 0.290 faster 0 3.884688e+06 3.884691e+06 3.255
22 regular 7 35 635 51 2.500000e+00 0.111 faster 0 3.884692e+06 3.884695e+06 3.233
22 regular 7 36 636 50 2.500000e+00 0.532 faster 0 3.884697e+06 3.884700e+06 3.248
22 regular 7 37 637 71 2.500000e+00 0.303 none 2 3.884702e+06 3.884707e+06 5.499
22 regular 7 38 638 49 2.500000e+00 0.393 slower 1 3.884708e+06 3.884712e+06 3.270
22 regular 7 39 639 49 2.500000e+00 0.117 slower 1 3.884713e+06 3.884717e+06 3.588
22 regular 7 40 640 70 2.500000e+00 0.167 faster 1 3.884718e+06 3.884722e+06 3.628
22 regular 7 41 641 70 2.500000e+00 0.435 none 2 3.884723e+06 3.884729e+06 5.500
22 regular 7 42 642 70 2.500000e+00 0.429 faster 1 3.884730e+06 3.884733e+06 3.427
22 regular 7 43 643 69 2.500000e+00 0.261 faster 1 3.884738e+06 3.884742e+06 3.928
22 regular 7 44 644 51 2.500000e+00 0.278 faster 0 3.884743e+06 3.884747e+06 3.660
22 regular 7 45 645 70 2.500000e+00 0.185 faster 1 3.884749e+06 3.884752e+06 3.167
22 regular 7 46 646 69 2.500000e+00 0.270 faster 1 3.884754e+06 3.884757e+06 3.180
22 regular 7 47 647 69 2.500000e+00 0.309 faster 1 3.884758e+06 3.884761e+06 3.207
22 regular 7 48 648 68 2.500000e+00 0.470 faster 1 3.884763e+06 3.884766e+06 3.399
22 regular 7 49 649 68 2.500000e+00 0.129 faster 1 3.884768e+06 3.884771e+06 3.280
22 regular 7 50 650 67 2.500000e+00 0.111 faster 1 3.884772e+06 3.884776e+06 3.698
22 regular 7 51 651 67 2.500000e+00 0.379 faster 1 3.884778e+06 3.884782e+06 4.059
22 regular 7 52 652 54 2.500000e+00 0.547 faster 0 3.884783e+06 3.884787e+06 3.894
22 regular 7 53 653 53 2.500000e+00 0.451 faster 0 3.884789e+06 3.884792e+06 3.094
22 regular 7 54 654 52 2.500000e+00 0.175 slower 1 3.884793e+06 3.884796e+06 3.438
22 regular 7 55 655 52 2.500000e+00 0.497 slower 1 3.884798e+06 3.884802e+06 3.221
22 regular 7 56 656 67 2.500000e+00 0.141 slower 0 3.884803e+06 3.884807e+06 3.645
22 regular 7 57 657 68 2.500000e+00 0.429 faster 1 3.884809e+06 3.884812e+06 3.596
22 regular 7 58 658 68 2.500000e+00 0.147 faster 1 3.884814e+06 3.884817e+06 3.118
22 regular 7 59 659 53 2.500000e+00 0.364 faster 0 3.884819e+06 3.884822e+06 3.180
22 regular 7 60 660 52 2.500000e+00 0.241 faster 0 3.884824e+06 3.884827e+06 3.374
22 regular 7 61 661 69 2.500000e+00 0.190 faster 1 3.884829e+06 3.884833e+06 3.461
22 regular 7 62 662 51 2.500000e+00 0.575 faster 0 3.884835e+06 3.884839e+06 3.211
22 regular 7 63 663 50 2.500000e+00 0.113 slower 1 3.884840e+06 3.884843e+06 3.204
22 regular 7 64 664 69 2.500000e+00 0.204 faster 1 3.884845e+06 3.884848e+06 3.408
22 regular 7 65 665 51 2.500000e+00 0.286 slower 1 3.884850e+06 3.884853e+06 3.170
22 regular 7 66 666 68 2.500000e+00 0.210 faster 1 3.884854e+06 3.884858e+06 3.293
22 regular 7 67 667 52 2.500000e+00 0.495 faster 0 3.884860e+06 3.884863e+06 3.258
22 regular 7 68 668 69 2.500000e+00 0.228 faster 1 3.884864e+06 3.884867e+06 3.028
22 regular 7 69 669 68 2.500000e+00 0.512 faster 1 3.884868e+06 3.884872e+06 3.353
22 regular 7 70 670 52 2.500000e+00 0.260 faster 0 3.884874e+06 3.884877e+06 3.729
22 regular 7 71 671 69 2.500000e+00 0.393 faster 1 3.884879e+06 3.884882e+06 3.478
22 regular 7 72 672 68 2.500000e+00 0.547 faster 1 3.884884e+06 3.884887e+06 3.813
22 regular 7 73 673 52 2.500000e+00 0.504 faster 0 3.884889e+06 3.884893e+06 3.304
22 regular 7 74 674 51 2.500000e+00 0.389 faster 0 3.884894e+06 3.884898e+06 3.674
22 regular 7 75 675 50 2.500000e+00 0.500 faster 0 3.884900e+06 3.884903e+06 3.578
22 regular 7 76 676 71 2.500000e+00 0.463 faster 1 3.884905e+06 3.884909e+06 3.867
22 regular 7 77 677 50 2.500000e+00 0.581 slower 1 3.884911e+06 3.884914e+06 3.246
22 regular 7 78 678 50 2.500000e+00 0.593 slower 1 3.884916e+06 3.884919e+06 3.235
22 regular 7 79 679 51 2.500000e+00 0.318 slower 1 3.884921e+06 3.884924e+06 3.403
22 regular 7 80 680 51 2.500000e+00 0.233 faster 0 3.884926e+06 3.884929e+06 3.370
22 regular 7 81 681 70 2.500000e+00 0.324 faster 1 3.884931e+06 3.884934e+06 3.342
22 regular 7 82 682 69 2.500000e+00 0.545 faster 1 3.884936e+06 3.884939e+06 3.280
22 regular 7 83 683 69 2.500000e+00 0.228 faster 1 3.884940e+06 3.884944e+06 3.704
22 regular 7 84 684 52 2.500000e+00 0.211 faster 0 3.884945e+06 3.884948e+06 3.565
22 regular 7 85 685 69 2.500000e+00 0.279 faster 1 3.884950e+06 3.884953e+06 3.150
22 regular 7 86 686 51 2.500000e+00 0.142 faster 0 3.884954e+06 3.884958e+06 3.399
22 regular 7 87 687 70 2.500000e+00 0.528 faster 1 3.884960e+06 3.884963e+06 3.204
22 regular 7 88 688 51 2.500000e+00 0.413 slower 1 3.884966e+06 3.884969e+06 3.363
22 regular 7 89 689 69 2.500000e+00 0.517 faster 1 3.884972e+06 3.884975e+06 3.539
22 regular 7 90 690 68 2.500000e+00 0.404 faster 1 3.884977e+06 3.884980e+06 3.370
22 regular 7 91 691 52 2.500000e+00 0.325 slower 1 3.884982e+06 3.884986e+06 3.971
22 regular 7 92 692 67 2.500000e+00 0.346 slower 0 3.884987e+06 3.884991e+06 3.931
22 regular 7 93 693 68 2.500000e+00 0.397 faster 1 3.884993e+06 3.884996e+06 3.407
22 regular 7 94 694 68 2.500000e+00 0.344 faster 1 3.884998e+06 3.885001e+06 3.276
22 regular 7 95 695 53 2.500000e+00 0.138 faster 0 3.885002e+06 3.885006e+06 3.692
22 regular 7 96 696 68 2.500000e+00 0.449 faster 1 3.885007e+06 3.885010e+06 3.237
22 regular 7 97 697 68 2.500000e+00 0.111 faster 1 3.885011e+06 3.885015e+06 3.387
22 regular 7 98 698 67 2.500000e+00 0.288 faster 1 3.885016e+06 3.885019e+06 3.247
22 regular 7 99 699 53 2.500000e+00 0.325 faster 0 3.885021e+06 3.885024e+06 3.512
22 regular 7 100 700 68 2.500000e+00 0.584 faster 1 3.885025e+06 3.885029e+06 3.619
22 irregular 8 1 701 53 2 0.354 faster 0 3.885107e+06 3.885110e+06 2.604
22 irregular 8 2 702 52 2.500000e+00 0.192 faster 0 3.885111e+06 3.885114e+06 3.084
22 irregular 8 3 703 69 2 0.481 faster 1 3.885116e+06 3.885119e+06 2.721
22 irregular 8 4 704 69 1 0.425 faster 1 3.885120e+06 3.885122e+06 1.791
22 irregular 8 5 705 68 1 0.204 faster 1 3.885123e+06 3.885125e+06 2.049
22 irregular 8 6 706 68 2 0.123 faster 1 3.885127e+06 3.885130e+06 2.851
22 irregular 8 7 707 67 1 0.218 faster 1 3.885131e+06 3.885133e+06 1.917
22 irregular 8 8 708 53 2.500000e+00 0.545 faster 0 3.885135e+06 3.885138e+06 3.237
22 irregular 8 9 709 52 1 0.389 slower 1 3.885139e+06 3.885142e+06 2.356
22 irregular 8 10 710 53 1 0.312 slower 1 3.885143e+06 3.885146e+06 2.584
22 irregular 8 11 711 67 1 0.493 faster 1 3.885148e+06 3.885149e+06 1.795
22 irregular 8 12 712 66 2 0.266 faster 1 3.885151e+06 3.885154e+06 2.647
22 irregular 8 13 713 66 2.500000e+00 0.136 faster 1 3.885155e+06 3.885158e+06 3.072
22 irregular 8 14 714 55 2 0.582 faster 0 3.885160e+06 3.885162e+06 2.703
22 irregular 8 15 715 54 1.500000e+00 0.236 faster 0 3.885164e+06 3.885166e+06 2.183
22 irregular 8 16 716 53 1 0.364 faster 0 3.885168e+06 3.885169e+06 1.800
22 irregular 8 17 717 52 1.500000e+00 0.142 faster 0 3.885170e+06 3.885172e+06 2.118
22 irregular 8 18 718 69 2.500000e+00 0.288 faster 1 3.885174e+06 3.885177e+06 3.020
22 irregular 8 19 719 51 3 0.239 slower 1 3.885179e+06 3.885183e+06 3.810
22 irregular 8 20 720 52 2.500000e+00 0.244 slower 1 3.885185e+06 3.885188e+06 3.577
22 irregular 8 21 721 68 2 0.251 faster 1 3.885189e+06 3.885192e+06 2.875
22 irregular 8 22 722 53 2 0.105 slower 1 3.885193e+06 3.885197e+06 3.367
22 irregular 8 23 723 67 3 0.396 faster 1 3.885198e+06 3.885202e+06 3.688
22 irregular 8 24 724 66 1 0.486 faster 1 3.885204e+06 3.885206e+06 1.852
22 irregular 8 25 725 66 3 0.290 faster 1 3.885207e+06 3.885211e+06 3.697
22 irregular 8 26 726 55 1.500000e+00 0.201 faster 0 3.885212e+06 3.885214e+06 2.227
22 irregular 8 27 727 66 2.500000e+00 0.327 faster 1 3.885216e+06 3.885219e+06 3.130
22 irregular 8 28 728 66 2 0.314 faster 1 3.885221e+06 3.885223e+06 2.512
22 irregular 8 29 729 55 1 0.367 faster 0 3.885225e+06 3.885227e+06 2.564
22 irregular 8 30 730 54 3 0.314 faster 0 3.885229e+06 3.885233e+06 3.689
22 irregular 8 31 731 53 1.500000e+00 0.113 faster 0 3.885234e+06 3.885237e+06 2.882
22 irregular 8 32 732 68 2 0.155 faster 1 3.885239e+06 3.885242e+06 2.895
22 irregular 8 33 733 52 3 0.226 none 2 3.885243e+06 3.885249e+06 5.999
22 irregular 8 34 734 68 1 0.113 faster 1 3.885250e+06 3.885252e+06 1.748
22 irregular 8 35 735 53 2.500000e+00 0.150 faster 0 3.885254e+06 3.885257e+06 3.080
22 irregular 8 36 736 68 1 0.257 faster 1 3.885258e+06 3.885260e+06 1.725
22 irregular 8 37 737 52 3 0.580 faster 0 3.885262e+06 3.885266e+06 3.907
22 irregular 8 38 738 69 3 0.368 faster 1 3.885267e+06 3.885271e+06 3.962
22 irregular 8 39 739 68 1.500000e+00 0.401 faster 1 3.885272e+06 3.885274e+06 2.079
22 irregular 8 40 740 68 1 0.425 faster 1 3.885276e+06 3.885278e+06 1.771
22 irregular 8 41 741 53 3 0.340 faster 0 3.885280e+06 3.885283e+06 3.634
22 irregular 8 42 742 68 3 0.532 faster 1 3.885285e+06 3.885288e+06 3.539
22 irregular 8 43 743 52 1.500000e+00 0.420 faster 0 3.885290e+06 3.885292e+06 2.359
22 irregular 8 44 744 69 1.500000e+00 0.599 faster 1 3.885293e+06 3.885295e+06 2.172
22 irregular 8 45 745 52 2.500000e+00 0.499 faster 0 3.885296e+06 3.885300e+06 3.246
22 irregular 8 46 746 51 2 0.595 slower 1 3.885302e+06 3.885304e+06 2.888
22 irregular 8 47 747 69 1.500000e+00 0.234 faster 1 3.885306e+06 3.885308e+06 2.258
22 irregular 8 48 748 68 2.500000e+00 0.166 slower 0 3.885310e+06 3.885313e+06 3.420
22 irregular 8 49 749 51 1 0.460 slower 1 3.885315e+06 3.885317e+06 2.046
22 irregular 8 50 750 51 1.500000e+00 0.253 faster 0 3.885318e+06 3.885320e+06 2.332
22 irregular 8 51 751 70 1 0.387 faster 1 3.885321e+06 3.885323e+06 1.770
22 irregular 8 52 752 69 2.500000e+00 0.182 faster 1 3.885324e+06 3.885327e+06 3.143
22 irregular 8 53 753 69 2 0.226 faster 1 3.885328e+06 3.885331e+06 3.058
22 irregular 8 54 754 68 3 0.266 faster 1 3.885332e+06 3.885336e+06 3.648
22 irregular 8 55 755 52 1.500000e+00 0.338 faster 0 3.885337e+06 3.885339e+06 2.037
22 irregular 8 56 756 51 1.500000e+00 0.430 faster 0 3.885341e+06 3.885343e+06 2.112
22 irregular 8 57 757 70 2.500000e+00 0.308 faster 1 3.885345e+06 3.885348e+06 3.278
22 irregular 8 58 758 51 3 0.271 slower 1 3.885349e+06 3.885353e+06 3.848
22 irregular 8 59 759 51 3 0.226 slower 1 3.885355e+06 3.885358e+06 3.868
22 irregular 8 60 760 68 1.500000e+00 0.102 faster 1 3.885360e+06 3.885362e+06 2.424
22 irregular 8 61 761 52 2 0.275 faster 0 3.885364e+06 3.885368e+06 4.006
22 irregular 8 62 762 69 2 0.389 faster 1 3.885369e+06 3.885372e+06 2.722
22 irregular 8 63 763 68 3 0.434 faster 1 3.885374e+06 3.885377e+06 3.565
22 irregular 8 64 764 68 1.500000e+00 0.588 faster 1 3.885379e+06 3.885382e+06 2.343
22 irregular 8 65 765 53 2.500000e+00 0.265 faster 0 3.885382e+06 3.885385e+06 3.049
22 irregular 8 66 766 68 3 0.571 faster 1 3.885387e+06 3.885390e+06 3.545
22 irregular 8 67 767 52 2 0.141 faster 0 3.885391e+06 3.885394e+06 2.745
22 irregular 8 68 768 51 2.500000e+00 0.396 faster 0 3.885395e+06 3.885399e+06 3.746
22 irregular 8 69 769 70 1.500000e+00 0.214 faster 1 3.885400e+06 3.885403e+06 2.428
22 irregular 8 70 770 69 2.500000e+00 0.585 faster 1 3.885408e+06 3.885411e+06 3.098
22 irregular 8 71 771 51 2.500000e+00 0.396 faster 0 3.885414e+06 3.885417e+06 3.374
22 irregular 8 72 772 50 2.500000e+00 0.358 slower 1 3.885419e+06 3.885423e+06 3.723
22 irregular 8 73 773 69 3 0.591 faster 1 3.885424e+06 3.885428e+06 3.618
22 irregular 8 74 774 69 1.500000e+00 0.248 faster 1 3.885430e+06 3.885432e+06 2.214
22 irregular 8 75 775 52 1.500000e+00 0.216 faster 0 3.885433e+06 3.885437e+06 3.989
22 irregular 8 76 776 51 2 0.247 faster 0 3.885438e+06 3.885441e+06 3.079
22 irregular 8 77 777 70 2.500000e+00 0.156 slower 0 3.885443e+06 3.885447e+06 3.212
22 irregular 8 78 778 49 2.500000e+00 0.366 faster 0 3.885448e+06 3.885451e+06 3.156
22 irregular 8 79 779 48 1 0.165 slower 1 3.885453e+06 3.885455e+06 2.006
22 irregular 8 80 780 72 1.500000e+00 0.596 faster 1 3.885457e+06 3.885459e+06 2.278
22 irregular 8 81 781 49 3 0.428 slower 1 3.885461e+06 3.885465e+06 3.959
22 irregular 8 82 782 49 1 0.538 slower 1 3.885466e+06 3.885468e+06 1.831
22 irregular 8 83 783 50 1 0.195 faster 0 3.885470e+06 3.885471e+06 1.711
22 irregular 8 84 784 71 1.500000e+00 0.401 faster 1 3.885473e+06 3.885475e+06 2.216
22 irregular 8 85 785 71 3 0.106 faster 1 3.885476e+06 3.885480e+06 3.592
22 irregular 8 86 786 50 2 0.518 faster 0 3.885481e+06 3.885484e+06 3.027
22 irregular 8 87 787 49 1.500000e+00 0.498 slower 1 3.885485e+06 3.885488e+06 2.535
22 irregular 8 88 788 49 1 0.123 faster 0 3.885489e+06 3.885491e+06 1.675
22 irregular 8 89 789 48 2 0.414 slower 1 3.885493e+06 3.885496e+06 2.907
22 irregular 8 90 790 71 2 0.400 faster 1 3.885497e+06 3.885500e+06 2.687
22 irregular 8 91 791 71 2.500000e+00 0.402 faster 1 3.885501e+06 3.885504e+06 3.286
22 irregular 8 92 792 50 3 0.257 faster 0 3.885506e+06 3.885510e+06 3.746
22 irregular 8 93 793 49 1 0.133 faster 0 3.885512e+06 3.885515e+06 3.366
22 irregular 8 94 794 72 1 0.586 faster 1 3.885517e+06 3.885519e+06 1.763
22 irregular 8 95 795 48 3 0.279 slower 1 3.885521e+06 3.885525e+06 3.872
22 irregular 8 96 796 71 2.500000e+00 0.504 faster 1 3.885527e+06 3.885530e+06 3.341
22 irregular 8 97 797 71 1.500000e+00 0.568 faster 1 3.885532e+06 3.885534e+06 2.498
22 irregular 8 98 798 70 3 0.284 faster 1 3.885536e+06 3.885539e+06 3.593
22 irregular 8 99 799 50 2 0.208 slower 1 3.885541e+06 3.885544e+06 2.814
22 irregular 8 100 800 69 2 0.488 faster 1 3.885546e+06 3.885549e+06 2.974
22 regular 9 1 801 70 3 0.200 faster 1 1.082664e+04 1.083007e+04 3.436
22 regular 9 2 802 70 3 0.324 faster 1 1.083106e+04 1.083447e+04 3.411
22 regular 9 3 803 68 3 0.397 faster 1 1.083604e+04 1.083946e+04 3.422
22 regular 9 4 804 68 3 0.403 faster 1 1.084097e+04 1.084438e+04 3.404
22 regular 9 5 805 54 3 0.203 faster 0 1.084565e+04 1.084906e+04 3.417
22 regular 9 6 806 68 3 0.490 faster 1 1.085078e+04 1.085438e+04 3.597
22 regular 9 7 807 52 3 0.174 faster 0 1.085568e+04 1.085940e+04 3.723
22 regular 9 8 808 70 3 0.571 faster 1 1.086107e+04 1.086492e+04 3.846
22 regular 9 9 809 52 3 0.111 slower 1 1.086719e+04 1.087130e+04 4.110
22 regular 9 10 810 68 3 0.285 faster 1 1.087222e+04 1.087585e+04 3.630
22 regular 9 11 811 66 3 0.229 faster 1 1.087716e+04 1.088071e+04 3.553
22 regular 9 12 812 66 3 0.226 faster 1 1.088252e+04 1.088602e+04 3.506
22 regular 9 13 813 56 3 0.256 faster 0 1.088994e+04 1.089367e+04 3.730
22 regular 9 14 814 66 3 0.111 faster 1 1.089557e+04 1.089913e+04 3.555
22 regular 9 15 815 54 3 0.356 faster 0 1.090066e+04 1.090414e+04 3.477
22 regular 9 16 816 68 3 0.382 faster 1 1.090618e+04 1.090937e+04 3.191
22 regular 9 17 817 66 3 0.153 none 2 1.091074e+04 1.091674e+04 6.000
22 regular 9 18 818 54 3 0.262 slower 1 1.091765e+04 1.092166e+04 4.008
22 regular 9 19 819 54 3 0.488 faster 0 1.092387e+04 1.092742e+04 3.542
22 regular 9 20 820 53 3 0.393 slower 1 1.092897e+04 1.093266e+04 3.698
22 regular 9 21 821 66 3 0.507 faster 1 1.093459e+04 1.093818e+04 3.589
22 regular 9 22 822 66 3 0.462 faster 1 1.093983e+04 1.094343e+04 3.597
22 regular 9 23 823 65 3 0.550 faster 1 1.094520e+04 1.094919e+04 3.995
22 regular 9 24 824 55 3 0.502 faster 0 1.095093e+04 1.095449e+04 3.553
22 regular 9 25 825 54 3 0.457 faster 0 1.095620e+04 1.095970e+04 3.499
22 regular 9 26 826 67 3 0.264 faster 1 1.096105e+04 1.096497e+04 3.920
22 regular 9 27 827 66 3 0.194 faster 1 1.096629e+04 1.096970e+04 3.417
22 regular 9 28 828 54 3 0.511 faster 0 1.097143e+04 1.097517e+04 3.741
22 regular 9 29 829 67 3 0.180 slower 0 1.097736e+04 1.098149e+04 4.133
22 regular 9 30 830 52 3 0.487 faster 0 1.098356e+04 1.098761e+04 4.051
22 regular 9 31 831 51 3 0.346 faster 0 1.098917e+04 1.099271e+04 3.541
22 regular 9 32 832 70 3 0.329 faster 1 1.099474e+04 1.099857e+04 3.826
22 regular 9 33 833 69 3 0.406 faster 1 1.100072e+04 1.100407e+04 3.348
22 regular 9 34 834 69 3 0.477 faster 1 1.100596e+04 1.100948e+04 3.520
22 regular 9 35 835 52 3 0.535 slower 1 1.101180e+04 1.101596e+04 4.164
22 regular 9 36 836 52 3 0.112 faster 0 1.101735e+04 1.102182e+04 4.465
22 regular 9 37 837 69 3 0.447 slower 0 1.102345e+04 1.102762e+04 4.178
22 regular 9 38 838 50 3 0.553 slower 1 1.102943e+04 1.103321e+04 3.775
22 regular 9 39 839 69 3 0.156 faster 1 1.103448e+04 1.103807e+04 3.595
22 regular 9 40 840 69 3 0.505 slower 0 1.104018e+04 1.104414e+04 3.959
22 regular 9 41 841 70 3 0.334 faster 1 1.104559e+04 1.104916e+04 3.570
22 regular 9 42 842 69 3 0.459 faster 1 1.105071e+04 1.105434e+04 3.636
22 regular 9 43 843 51 3 0.590 slower 1 1.105651e+04 1.106031e+04 3.802
22 regular 9 44 844 52 3 0.598 faster 0 1.106204e+04 1.106553e+04 3.483
22 regular 9 45 845 51 3 0.419 faster 0 1.106713e+04 1.107071e+04 3.579
22 regular 9 46 846 70 3 0.232 faster 1 1.107221e+04 1.107577e+04 3.560
22 regular 9 47 847 50 3 0.304 slower 1 1.107726e+04 1.108092e+04 3.662
22 regular 9 48 848 51 3 0.384 slower 1 1.108245e+04 1.108621e+04 3.766
22 regular 9 49 849 69 3 0.540 slower 0 1.108851e+04 1.109252e+04 4.006
22 regular 9 50 850 50 3 0.134 faster 0 1.109423e+04 1.109786e+04 3.630
22 regular 9 51 851 71 3 0.172 faster 1 1.110293e+04 1.110641e+04 3.477
22 regular 9 52 852 50 3 0.207 slower 1 1.110871e+04 1.111287e+04 4.164
22 regular 9 53 853 70 3 0.211 faster 1 1.111524e+04 1.111895e+04 3.710
22 regular 9 54 854 69 3 0.447 faster 1 1.112101e+04 1.112474e+04 3.736
22 regular 9 55 855 69 3 0.110 faster 1 1.112624e+04 1.113015e+04 3.908
22 regular 9 56 856 52 3 0.245 faster 0 1.113167e+04 1.113521e+04 3.541
22 regular 9 57 857 51 3 0.521 slower 1 1.113637e+04 1.114031e+04 3.941
22 regular 9 58 858 51 3 0.135 faster 0 1.114171e+04 1.114537e+04 3.653
22 regular 9 59 859 50 3 0.581 slower 1 1.114731e+04 1.115129e+04 3.980
22 regular 9 60 860 51 3 0.171 slower 1 1.115308e+04 1.115681e+04 3.724
22 regular 9 61 861 51 3 0.588 faster 0 1.115851e+04 1.116241e+04 3.896
22 regular 9 62 862 50 3 0.192 faster 0 1.116416e+04 1.116777e+04 3.609
22 regular 9 63 863 71 3 0.360 faster 1 1.116923e+04 1.117298e+04 3.758
22 regular 9 64 864 70 3 0.456 faster 1 1.117407e+04 1.117778e+04 3.710
22 regular 9 65 865 70 3 0.294 slower 0 1.117928e+04 1.118313e+04 3.842
22 regular 9 66 866 71 3 0.583 faster 1 1.118532e+04 1.118903e+04 3.708
22 regular 9 67 867 50 3 0.489 slower 1 1.119065e+04 1.119482e+04 4.176
22 regular 9 68 868 50 3 0.161 none 2 1.119607e+04 1.120207e+04 5.999
22 regular 9 69 869 70 3 0.224 faster 1 1.120294e+04 1.120665e+04 3.709
22 regular 9 70 870 51 3 0.185 faster 0 1.120798e+04 1.121205e+04 4.077
22 regular 9 71 871 70 3 0.434 faster 1 1.121363e+04 1.121821e+04 4.589
22 regular 9 72 872 50 3 0.552 slower 1 1.122061e+04 1.122466e+04 4.058
22 regular 9 73 873 69 3 0.123 faster 1 1.122603e+04 1.122973e+04 3.707
22 regular 9 74 874 69 3 0.343 faster 1 1.123133e+04 1.123493e+04 3.600
22 regular 9 75 875 52 3 0.118 faster 0 1.123574e+04 1.123961e+04 3.863
22 regular 9 76 876 69 3 0.280 faster 1 1.124097e+04 1.124458e+04 3.613
22 regular 9 77 877 51 3 0.151 slower 1 1.124586e+04 1.124970e+04 3.841
22 regular 9 78 878 52 3 0.200 faster 0 1.125109e+04 1.125485e+04 3.768
22 regular 9 79 879 69 3 0.531 faster 1 1.125603e+04 1.126015e+04 4.125
22 regular 9 80 880 51 3 0.126 faster 0 1.126092e+04 1.126446e+04 3.534
22 regular 9 81 881 50 3 0.447 faster 0 1.126553e+04 1.126937e+04 3.833
22 regular 9 82 882 71 3 0.482 faster 1 1.127097e+04 1.127449e+04 3.517
22 regular 9 83 883 50 3 0.164 slower 1 1.127581e+04 1.127956e+04 3.754
22 regular 9 84 884 50 3 0.302 faster 0 1.128095e+04 1.128465e+04 3.693
22 regular 9 85 885 71 3 0.105 faster 1 1.128592e+04 1.128956e+04 3.637
22 regular 9 86 886 50 3 0.368 slower 1 1.129120e+04 1.129516e+04 3.960
22 regular 9 87 887 70 3 0.433 faster 1 1.129692e+04 1.130065e+04 3.731
22 regular 9 88 888 69 3 0.114 faster 1 1.130191e+04 1.130556e+04 3.645
22 regular 9 89 889 51 3 0.169 faster 0 1.130737e+04 1.131093e+04 3.567
22 regular 9 90 890 70 3 0.337 faster 1 1.131251e+04 1.131610e+04 3.590
22 regular 9 91 891 51 3 0.526 faster 0 1.131784e+04 1.132141e+04 3.578
22 regular 9 92 892 50 3 0.367 faster 0 1.132366e+04 1.132796e+04 4.299
22 regular 9 93 893 71 3 0.580 faster 1 1.132971e+04 1.133341e+04 3.702
22 regular 9 94 894 49 3 0.260 slower 1 1.133480e+04 1.133863e+04 3.831
22 regular 9 95 895 50 3 0.579 faster 0 1.134163e+04 1.134572e+04 4.085
22 regular 9 96 896 71 3 0.364 faster 1 1.134732e+04 1.135079e+04 3.467
22 regular 9 97 897 49 3 0.571 faster 0 1.135250e+04 1.135745e+04 4.946
22 regular 9 98 898 48 3 0.170 slower 1 1.135884e+04 1.136258e+04 3.747
22 regular 9 99 899 49 3 0.237 faster 0 1.136397e+04 1.136789e+04 3.923
22 regular 9 100 900 72 3 0.453 faster 1 1.136968e+04 1.137316e+04 3.475
22 irregular 10 1 901 48 3 0.332 faster 0 1.139262e+04 1.139641e+04 3.785
22 irregular 10 2 902 47 3 0.196 faster 0 1.139783e+04 1.140143e+04 3.596
22 irregular 10 3 903 46 1.500000e+00 0.340 faster 0 1.140316e+04 1.140540e+04 2.243
22 irregular 10 4 904 45 2.500000e+00 0.171 faster 0 1.140681e+04 1.140997e+04 3.161
22 irregular 10 5 905 44 2 0.173 faster 0 1.141186e+04 1.141455e+04 2.691
22 irregular 10 6 906 43 2.500000e+00 0.426 faster 0 1.141608e+04 1.141924e+04 3.155
22 irregular 10 7 907 42 2 0.300 faster 0 1.142089e+04 1.142361e+04 2.720
22 irregular 10 8 908 79 3 0.475 faster 1 1.142566e+04 1.142937e+04 3.708
22 irregular 10 9 909 42 3 0.510 faster 0 1.143114e+04 1.143493e+04 3.790
22 irregular 10 10 910 79 2.500000e+00 0.361 faster 1 1.143650e+04 1.143962e+04 3.124
22 irregular 10 11 911 79 2 0.143 faster 1 1.144099e+04 1.144357e+04 2.581
22 irregular 10 12 912 78 2.500000e+00 0.151 faster 1 1.144500e+04 1.144801e+04 3.002
22 irregular 10 13 913 42 1.500000e+00 0.384 slower 1 1.144906e+04 1.145143e+04 2.370
22 irregular 10 14 914 43 3 0.418 slower 1 1.145252e+04 1.145626e+04 3.737
22 irregular 10 15 915 77 1.500000e+00 0.401 faster 1 1.145776e+04 1.146025e+04 2.482
22 irregular 10 16 916 76 1.500000e+00 0.108 faster 1 1.146176e+04 1.146396e+04 2.201
22 irregular 10 17 917 44 3 0.426 slower 1 1.146556e+04 1.146929e+04 3.721
22 irregular 10 18 918 45 1.500000e+00 0.443 none 2 1.147090e+04 1.147540e+04 4.499
22 irregular 10 19 919 75 1 0.443 faster 1 1.147651e+04 1.147841e+04 1.897
22 irregular 10 20 920 75 1 0.576 faster 1 1.147963e+04 1.148124e+04 1.612
22 irregular 10 21 921 46 2.500000e+00 0.491 faster 0 1.148240e+04 1.148572e+04 3.316
22 irregular 10 22 922 75 2 0.549 faster 1 1.148759e+04 1.149007e+04 2.478
22 irregular 10 23 923 75 2.500000e+00 0.516 faster 1 1.149239e+04 1.149540e+04 3.010
22 irregular 10 24 924 46 2.500000e+00 0.277 faster 0 1.149747e+04 1.150057e+04 3.093
22 irregular 10 25 925 75 1.500000e+00 0.274 faster 1 1.150210e+04 1.150426e+04 2.158
22 irregular 10 26 926 75 1 0.303 faster 1 1.150636e+04 1.150794e+04 1.584
22 irregular 10 27 927 46 2 0.318 slower 1 1.150950e+04 1.151217e+04 2.666
22 irregular 10 28 928 46 2 0.470 slower 1 1.151327e+04 1.151596e+04 2.683
22 irregular 10 29 929 73 2 0.433 faster 1 1.151702e+04 1.151964e+04 2.619
22 irregular 10 30 930 47 2 0.489 faster 0 1.152129e+04 1.152380e+04 2.506
22 irregular 10 31 931 74 3 0.310 faster 1 1.152479e+04 1.152833e+04 3.536
22 irregular 10 32 932 47 1 0.590 slower 1 1.153003e+04 1.153229e+04 2.262
22 irregular 10 33 933 47 1 0.311 faster 0 1.153324e+04 1.153498e+04 1.737
22 irregular 10 34 934 46 1 0.485 faster 0 1.153610e+04 1.153857e+04 2.464
22 irregular 10 35 935 75 1 0.403 faster 1 1.154006e+04 1.154369e+04 3.625
22 irregular 10 36 936 74 1 0.355 faster 1 1.154469e+04 1.154621e+04 1.528
22 irregular 10 37 937 74 3 0.353 faster 1 1.154724e+04 1.155069e+04 3.450
22 irregular 10 38 938 73 3 0.421 faster 1 1.155225e+04 1.155582e+04 3.561
22 irregular 10 39 939 47 2.500000e+00 0.173 slower 1 1.155799e+04 1.156130e+04 3.314
22 irregular 10 40 940 48 3 0.386 faster 0 1.156455e+04 1.156805e+04 3.508
22 irregular 10 41 941 73 1 0.405 faster 1 1.157046e+04 1.157209e+04 1.630
22 irregular 10 42 942 73 1 0.329 faster 1 1.157369e+04 1.157524e+04 1.543
22 irregular 10 43 943 48 2 0.497 slower 1 1.157697e+04 1.157975e+04 2.779
22 irregular 10 44 944 48 1.500000e+00 0.475 slower 1 1.158146e+04 1.158370e+04 2.247
22 irregular 10 45 945 49 3 0.444 faster 0 1.158536e+04 1.158943e+04 4.069
22 irregular 10 46 946 72 2 0.572 faster 1 1.159120e+04 1.159386e+04 2.660
22 irregular 10 47 947 48 2.500000e+00 0.546 faster 0 1.159552e+04 1.159863e+04 3.112
22 irregular 10 48 948 73 1.500000e+00 0.163 faster 1 1.160000e+04 1.160225e+04 2.247
22 irregular 10 49 949 48 1.500000e+00 0.527 slower 1 1.160486e+04 1.160714e+04 2.284
22 irregular 10 50 950 72 1.500000e+00 0.350 faster 1 1.160865e+04 1.161073e+04 2.078
22 irregular 10 51 951 71 2.500000e+00 0.284 faster 1 1.161221e+04 1.161516e+04 2.949
22 irregular 10 52 952 49 2 0.574 slower 1 1.161758e+04 1.162052e+04 2.940
22 irregular 10 53 953 70 3 0.462 faster 1 1.162231e+04 1.162618e+04 3.873
22 irregular 10 54 954 70 2 0.126 faster 1 1.162862e+04 1.163122e+04 2.604
22 irregular 10 55 955 69 2 0.548 faster 1 1.163286e+04 1.163546e+04 2.602
22 irregular 10 56 956 69 2.500000e+00 0.396 faster 1 1.163653e+04 1.163953e+04 2.996
22 irregular 10 57 957 68 2 0.458 faster 1 1.164115e+04 1.164378e+04 2.631
22 irregular 10 58 958 52 3 0.216 slower 1 1.164519e+04 1.164890e+04 3.717
22 irregular 10 59 959 53 1.500000e+00 0.589 none 2 1.165071e+04 1.165521e+04 4.499
22 irregular 10 60 960 67 1.500000e+00 0.559 faster 1 1.165700e+04 1.165908e+04 2.073
22 irregular 10 61 961 53 1 0.456 faster 0 1.166074e+04 1.166277e+04 2.030
22 irregular 10 62 962 52 1 0.373 slower 1 1.166453e+04 1.166645e+04 1.920
22 irregular 10 63 963 67 3 0.220 faster 1 1.166781e+04 1.167135e+04 3.539
22 irregular 10 64 964 53 1.500000e+00 0.266 faster 0 1.167282e+04 1.167546e+04 2.643
22 irregular 10 65 965 68 2 0.102 faster 1 1.167688e+04 1.167940e+04 2.514
22 irregular 10 66 966 67 1 0.275 faster 1 1.168128e+04 1.168289e+04 1.601
22 irregular 10 67 967 67 2.500000e+00 0.380 faster 1 1.168447e+04 1.168765e+04 3.187
22 irregular 10 68 968 54 1 0.350 faster 0 1.169017e+04 1.169241e+04 2.232
22 irregular 10 69 969 67 1 0.442 faster 1 1.169477e+04 1.169650e+04 1.736
22 irregular 10 70 970 53 2.500000e+00 0.444 faster 0 1.169872e+04 1.170226e+04 3.539
22 irregular 10 71 971 68 2 0.310 faster 1 1.170380e+04 1.170641e+04 2.605
22 irregular 10 72 972 67 3 0.383 faster 1 1.170790e+04 1.171145e+04 3.543
22 irregular 10 73 973 67 2.500000e+00 0.320 faster 1 1.171298e+04 1.171610e+04 3.121
22 irregular 10 74 974 66 3 0.406 faster 1 1.171768e+04 1.172114e+04 3.461
22 irregular 10 75 975 66 3 0.589 faster 1 1.172374e+04 1.172729e+04 3.543
22 irregular 10 76 976 65 1.500000e+00 0.449 faster 1 1.172970e+04 1.173175e+04 2.051
22 irregular 10 77 977 55 1 0.350 faster 0 1.173322e+04 1.173479e+04 1.568
22 irregular 10 78 978 54 2.500000e+00 0.232 faster 0 1.173617e+04 1.173969e+04 3.512
22 irregular 10 79 979 53 2.500000e+00 0.397 faster 0 1.174123e+04 1.174444e+04 3.209
22 irregular 10 80 980 52 2 0.320 faster 0 1.174586e+04 1.174855e+04 2.689
22 irregular 10 81 981 69 2.500000e+00 0.291 faster 1 1.175001e+04 1.175396e+04 3.950
22 irregular 10 82 982 52 2.500000e+00 0.459 faster 0 1.175634e+04 1.175900e+04 2.662
22 irregular 10 83 983 51 1.500000e+00 0.258 faster 0 1.176119e+04 1.176327e+04 2.078
22 irregular 10 84 984 70 3 0.366 faster 1 1.176498e+04 1.176857e+04 3.586
22 irregular 10 85 985 50 1.500000e+00 0.236 faster 0 1.177006e+04 1.177245e+04 2.391
22 irregular 10 86 986 71 1.500000e+00 0.390 faster 1 1.177409e+04 1.177604e+04 1.946
22 irregular 10 87 987 70 2.500000e+00 0.555 faster 1 1.177791e+04 1.178098e+04 3.071
22 irregular 10 88 988 50 3 0.275 faster 0 1.178194e+04 1.178548e+04 3.538
22 irregular 10 89 989 49 1 0.326 faster 0 1.178719e+04 1.178893e+04 1.743
22 irregular 10 90 990 48 2 0.305 faster 0 1.178991e+04 1.179232e+04 2.412
22 irregular 10 91 991 47 1.500000e+00 0.385 faster 0 1.179347e+04 1.179570e+04 2.230
22 irregular 10 92 992 46 3 0.153 slower 1 1.179778e+04 1.180141e+04 3.631
22 irregular 10 93 993 73 2 0.419 faster 1 1.180294e+04 1.180565e+04 2.715
22 irregular 10 94 994 73 2.500000e+00 0.398 faster 1 1.180733e+04 1.181049e+04 3.151
22 irregular 10 95 995 72 1 0.600 faster 1 1.181224e+04 1.181397e+04 1.738
22 irregular 10 96 996 48 2 0.110 faster 0 1.181519e+04 1.181786e+04 2.666
22 irregular 10 97 997 73 1.500000e+00 0.349 faster 1 1.181957e+04 1.182169e+04 2.117
22 irregular 10 98 998 48 1 0.114 faster 0 1.182302e+04 1.182469e+04 1.678
22 irregular 10 99 999 47 1 0.495 slower 1 1.182637e+04 1.182817e+04 1.800
22 irregular 10 100 1000 73 1.500000e+00 0.563 faster 1 1.183001e+04 1.183205e+04 2.046
