subNo condition blockNo trialNo trialID currentFrequency cueTargetInterval randomPreCueInterval response responseAccuracy startTime responseTime RT
24 regular 1 1 1 70 2.500000e+00 0.596 faster 1 2.556249e+05 2.556280e+05 3.100
24 regular 1 2 2 70 2.500000e+00 0.230 slower 0 2.556289e+05 2.556323e+05 3.436
24 regular 1 3 3 72 2.500000e+00 0.560 faster 1 2.556335e+05 2.556367e+05 3.152
24 regular 1 4 4 50 2.500000e+00 0.507 slower 1 2.556379e+05 2.556409e+05 3.022
24 regular 1 5 5 70 2.500000e+00 0.112 faster 1 2.556421e+05 2.556455e+05 3.304
24 regular 1 6 6 52 2.500000e+00 0.190 faster 0 2.556463e+05 2.556499e+05 3.614
24 regular 1 7 7 50 2.500000e+00 0.198 slower 1 2.556507e+05 2.556543e+05 3.593
24 regular 1 8 8 70 2.500000e+00 0.100 none 2 2.556551e+05 2.556606e+05 5.499
24 regular 1 9 9 50 2.500000e+00 0.491 none 2 2.556618e+05 2.556673e+05 5.500
24 regular 1 10 10 50 2.500000e+00 0.317 slower 1 2.556682e+05 2.556714e+05 3.197
24 regular 1 11 11 68 2.500000e+00 0.428 faster 1 2.556725e+05 2.556763e+05 3.757
24 regular 1 12 12 68 2.500000e+00 0.385 faster 1 2.556773e+05 2.556808e+05 3.506
24 regular 1 13 13 53 2.500000e+00 0.161 slower 1 2.556816e+05 2.556849e+05 3.341
24 regular 1 14 14 53 2.500000e+00 0.450 faster 0 2.556860e+05 2.556892e+05 3.128
24 regular 1 15 15 52 2.500000e+00 0.435 slower 1 2.556902e+05 2.556933e+05 3.029
24 regular 1 16 16 53 2.500000e+00 0.357 faster 0 2.556946e+05 2.556977e+05 3.106
24 regular 1 17 17 68 2.500000e+00 0.561 faster 1 2.556991e+05 2.557027e+05 3.623
24 regular 1 18 18 52 2.500000e+00 0.420 slower 1 2.557038e+05 2.557067e+05 2.987
24 regular 1 19 19 67 2.500000e+00 0.102 faster 1 2.557075e+05 2.557105e+05 3.001
24 regular 1 20 20 67 2.500000e+00 0.485 faster 1 2.557116e+05 2.557150e+05 3.349
24 regular 1 21 21 54 2.500000e+00 0.491 slower 1 2.557167e+05 2.557199e+05 3.135
24 regular 1 22 22 54 2.500000e+00 0.511 slower 1 2.557251e+05 2.557281e+05 2.985
24 regular 1 23 23 65 2.500000e+00 0.463 faster 1 2.557292e+05 2.557326e+05 3.400
24 regular 1 24 24 65 2.500000e+00 0.301 slower 0 2.557397e+05 2.557428e+05 3.173
24 regular 1 25 25 66 2.500000e+00 0.254 faster 1 2.557437e+05 2.557470e+05 3.237
24 regular 1 26 26 55 2.500000e+00 0.194 slower 1 2.557478e+05 2.557512e+05 3.409
24 regular 1 27 27 55 2.500000e+00 0.282 slower 1 2.557526e+05 2.557563e+05 3.737
24 regular 1 28 28 56 2.500000e+00 0.153 faster 0 2.557603e+05 2.557637e+05 3.401
24 regular 1 29 29 55 2.500000e+00 0.377 slower 1 2.557664e+05 2.557698e+05 3.446
24 regular 1 30 30 65 2.500000e+00 0.266 slower 0 2.557708e+05 2.557744e+05 3.625
24 regular 1 31 31 54 2.500000e+00 0.213 faster 0 2.557753e+05 2.557785e+05 3.236
24 regular 1 32 32 53 2.500000e+00 0.390 faster 0 2.557795e+05 2.557830e+05 3.526
24 regular 1 33 33 52 2.500000e+00 0.363 slower 1 2.557840e+05 2.557882e+05 4.156
24 regular 1 34 34 53 2.500000e+00 0.426 slower 1 2.557893e+05 2.557927e+05 3.430
24 regular 1 35 35 53 2.500000e+00 0.110 faster 0 2.557935e+05 2.557968e+05 3.336
24 regular 1 36 36 52 2.500000e+00 0.221 faster 0 2.557981e+05 2.558036e+05 5.417
24 regular 1 37 37 69 2.500000e+00 0.528 faster 1 2.558047e+05 2.558079e+05 3.166
24 regular 1 38 38 68 2.500000e+00 0.549 faster 1 2.558091e+05 2.558124e+05 3.353
24 regular 1 39 39 68 2.500000e+00 0.378 faster 1 2.558139e+05 2.558170e+05 3.104
24 regular 1 40 40 67 2.500000e+00 0.335 slower 0 2.558180e+05 2.558211e+05 3.139
24 regular 1 41 41 52 2.500000e+00 0.172 faster 0 2.558219e+05 2.558252e+05 3.302
24 regular 1 42 42 51 2.500000e+00 0.231 slower 1 2.558261e+05 2.558295e+05 3.386
24 regular 1 43 43 69 2.500000e+00 0.373 faster 1 2.558305e+05 2.558337e+05 3.233
24 regular 1 44 44 68 2.500000e+00 0.247 slower 0 2.558346e+05 2.558380e+05 3.382
24 regular 1 45 45 51 2.500000e+00 0.313 slower 1 2.558389e+05 2.558424e+05 3.483
24 regular 1 46 46 69 2.500000e+00 0.114 slower 0 2.558432e+05 2.558465e+05 3.294
24 regular 1 47 47 50 2.500000e+00 0.301 slower 1 2.558474e+05 2.558508e+05 3.370
24 regular 1 48 48 51 2.500000e+00 0.261 slower 1 2.558517e+05 2.558550e+05 3.383
24 regular 1 49 49 69 2.500000e+00 0.314 faster 1 2.558560e+05 2.558592e+05 3.193
24 regular 1 50 50 68 2.500000e+00 0.243 slower 0 2.558601e+05 2.558632e+05 3.159
24 regular 1 51 51 51 2.500000e+00 0.358 slower 1 2.558642e+05 2.558681e+05 3.848
24 regular 1 52 52 51 2.500000e+00 0.199 slower 1 2.558740e+05 2.558776e+05 3.553
24 regular 1 53 53 68 2.500000e+00 0.178 slower 0 2.558831e+05 2.558865e+05 3.462
24 regular 1 54 54 51 2.500000e+00 0.154 slower 1 2.558880e+05 2.558916e+05 3.581
24 regular 1 55 55 69 2.500000e+00 0.416 faster 1 2.558926e+05 2.558958e+05 3.144
24 regular 1 56 56 52 2.500000e+00 0.370 slower 1 2.558968e+05 2.559002e+05 3.453
24 regular 1 57 57 68 2.500000e+00 0.460 faster 1 2.559013e+05 2.559051e+05 3.812
24 regular 1 58 58 53 2.500000e+00 0.526 slower 1 2.559063e+05 2.559097e+05 3.388
24 regular 1 59 59 53 2.500000e+00 0.366 slower 1 2.559107e+05 2.559141e+05 3.402
24 regular 1 60 60 54 2.500000e+00 0.201 faster 0 2.559149e+05 2.559203e+05 5.330
24 regular 1 61 61 53 2.500000e+00 0.520 slower 1 2.559223e+05 2.559258e+05 3.472
24 regular 1 62 62 67 2.500000e+00 0.381 faster 1 2.559279e+05 2.559318e+05 3.859
24 regular 1 63 63 54 2.500000e+00 0.566 slower 1 2.559404e+05 2.559436e+05 3.179
24 regular 1 64 64 54 2.500000e+00 0.409 slower 1 2.559446e+05 2.559486e+05 3.992
24 regular 1 65 65 65 2.500000e+00 0.544 faster 1 2.559528e+05 2.559561e+05 3.264
24 regular 1 66 66 55 2.500000e+00 0.583 slower 1 2.559573e+05 2.559606e+05 3.248
24 regular 1 67 67 64 2.500000e+00 0.410 slower 0 2.559616e+05 2.559649e+05 3.260
24 regular 1 68 68 65 2.500000e+00 0.252 slower 0 2.559658e+05 2.559689e+05 3.183
24 regular 1 69 69 66 2.500000e+00 0.220 slower 0 2.559797e+05 2.559831e+05 3.445
24 regular 1 70 70 53 2.500000e+00 0.239 none 2 2.560365e+05 2.560420e+05 5.500
24 regular 1 71 71 53 2.500000e+00 0.489 slower 1 2.560431e+05 2.560463e+05 3.179
24 regular 1 72 72 67 2.500000e+00 0.151 faster 1 2.560471e+05 2.560504e+05 3.302
24 regular 1 73 73 54 2.500000e+00 0.294 faster 0 2.560513e+05 2.560546e+05 3.278
24 regular 1 74 74 53 2.500000e+00 0.571 slower 1 2.560558e+05 2.560595e+05 3.673
24 regular 1 75 75 67 2.500000e+00 0.155 faster 1 2.560603e+05 2.560635e+05 3.203
24 regular 1 76 76 66 2.500000e+00 0.286 slower 0 2.560646e+05 2.560679e+05 3.275
24 regular 1 77 77 67 2.500000e+00 0.482 faster 1 2.560690e+05 2.560720e+05 2.995
24 regular 1 78 78 67 2.500000e+00 0.429 faster 1 2.560731e+05 2.560762e+05 3.139
24 regular 1 79 79 66 2.500000e+00 0.234 slower 0 2.560771e+05 2.560803e+05 3.208
24 regular 1 80 80 53 2.500000e+00 0.550 slower 1 2.560815e+05 2.560847e+05 3.223
24 regular 1 81 81 53 2.500000e+00 0.227 faster 0 2.560856e+05 2.560889e+05 3.297
24 regular 1 82 82 52 2.500000e+00 0.341 slower 1 2.560901e+05 2.560935e+05 3.338
24 regular 1 83 83 67 2.500000e+00 0.584 slower 0 2.561028e+05 2.561062e+05 3.429
24 regular 1 84 84 68 2.500000e+00 0.423 slower 0 2.561359e+05 2.561397e+05 3.747
24 regular 1 85 85 51 2.500000e+00 0.539 slower 1 2.561409e+05 2.561440e+05 3.144
24 regular 1 86 86 69 2.500000e+00 0.222 faster 1 2.561449e+05 2.561480e+05 3.128
24 regular 1 87 87 52 2.500000e+00 0.334 faster 0 2.561490e+05 2.561522e+05 3.268
24 regular 1 88 88 51 2.500000e+00 0.439 slower 1 2.561533e+05 2.561566e+05 3.238
24 regular 1 89 89 69 2.500000e+00 0.336 faster 1 2.561575e+05 2.561608e+05 3.271
24 regular 1 90 90 68 2.500000e+00 0.375 faster 1 2.561618e+05 2.561650e+05 3.142
24 regular 1 91 91 68 2.500000e+00 0.301 slower 0 2.561659e+05 2.561692e+05 3.307
24 regular 1 92 92 69 2.500000e+00 0.233 slower 0 2.561701e+05 2.561735e+05 3.457
24 regular 1 93 93 70 2.500000e+00 0.482 slower 0 2.561747e+05 2.561778e+05 3.181
24 regular 1 94 94 49 2.500000e+00 0.426 slower 1 2.561789e+05 2.561822e+05 3.280
24 regular 1 95 95 70 2.500000e+00 0.498 faster 1 2.561833e+05 2.561867e+05 3.350
24 regular 1 96 96 70 2.500000e+00 0.546 slower 0 2.561878e+05 2.561915e+05 3.657
24 regular 1 97 97 71 2.500000e+00 0.408 slower 0 2.561925e+05 2.561957e+05 3.131
24 regular 1 98 98 72 2.500000e+00 0.485 faster 1 2.561968e+05 2.561999e+05 3.115
24 regular 1 99 99 71 2.500000e+00 0.371 slower 0 2.562009e+05 2.562045e+05 3.578
24 regular 1 100 100 48 2.500000e+00 0.543 none 2 2.562057e+05 2.562112e+05 5.500
24 irregular 2 1 101 72 1 0.288 faster 1 2.563192e+05 2.563207e+05 1.565
24 irregular 2 2 102 72 1.500000e+00 0.491 faster 1 2.563241e+05 2.563261e+05 2.074
24 irregular 2 3 103 71 2.500000e+00 0.264 faster 1 2.563280e+05 2.563311e+05 3.034
24 irregular 2 4 104 49 2.500000e+00 0.178 faster 0 2.563319e+05 2.563352e+05 3.333
24 irregular 2 5 105 72 1 0.362 faster 1 2.563362e+05 2.563379e+05 1.700
24 irregular 2 6 106 71 1.500000e+00 0.326 faster 1 2.563389e+05 2.563412e+05 2.231
24 irregular 2 7 107 71 3 0.430 faster 1 2.563423e+05 2.563459e+05 3.609
24 irregular 2 8 108 50 2 0.236 slower 1 2.563468e+05 2.563496e+05 2.808
24 irregular 2 9 109 70 1 0.587 faster 1 2.563508e+05 2.563525e+05 1.678
24 irregular 2 10 110 51 2 0.349 faster 0 2.563535e+05 2.563562e+05 2.679
24 irregular 2 11 111 70 2.500000e+00 0.552 faster 1 2.563574e+05 2.563608e+05 3.311
24 irregular 2 12 112 50 2 0.253 slower 1 2.563617e+05 2.563644e+05 2.706
24 irregular 2 13 113 51 2 0.357 faster 0 2.563654e+05 2.563679e+05 2.482
24 irregular 2 14 114 50 1 0.265 slower 1 2.563688e+05 2.563706e+05 1.836
24 irregular 2 15 115 50 2 0.418 slower 1 2.563717e+05 2.563743e+05 2.566
24 irregular 2 16 116 69 1.500000e+00 0.171 slower 0 2.563752e+05 2.563774e+05 2.212
24 irregular 2 17 117 50 1 0.178 slower 1 2.563782e+05 2.563800e+05 1.802
24 irregular 2 18 118 50 1 0.573 faster 0 2.563812e+05 2.563829e+05 1.636
24 irregular 2 19 119 49 1 0.545 slower 1 2.563854e+05 2.563873e+05 1.813
24 irregular 2 20 120 70 1 0.239 faster 1 2.563881e+05 2.563899e+05 1.743
24 irregular 2 21 121 50 3 0.528 slower 1 2.563911e+05 2.563946e+05 3.562
24 irregular 2 22 122 51 1.500000e+00 0.403 slower 1 2.563957e+05 2.563988e+05 3.098
24 irregular 2 23 123 51 2.500000e+00 0.384 slower 1 2.564008e+05 2.564042e+05 3.365
24 irregular 2 24 124 52 2 0.245 slower 1 2.564051e+05 2.564080e+05 2.971
24 irregular 2 25 125 52 1 0.544 faster 0 2.564092e+05 2.564115e+05 2.249
24 irregular 2 26 126 69 1.500000e+00 0.356 faster 1 2.564125e+05 2.564149e+05 2.379
24 irregular 2 27 127 52 3 0.244 faster 0 2.564173e+05 2.564210e+05 3.665
24 irregular 2 28 128 51 1.500000e+00 0.124 slower 1 2.564224e+05 2.564247e+05 2.327
24 irregular 2 29 129 51 2.500000e+00 0.167 slower 1 2.564256e+05 2.564287e+05 3.145
24 irregular 2 30 130 68 2.500000e+00 0.512 slower 0 2.564310e+05 2.564341e+05 3.130
24 irregular 2 31 131 51 2.500000e+00 0.332 slower 1 2.564351e+05 2.564382e+05 3.154
24 irregular 2 32 132 51 2.500000e+00 0.495 slower 1 2.564393e+05 2.564429e+05 3.531
24 irregular 2 33 133 52 1.500000e+00 0.249 slower 1 2.564438e+05 2.564461e+05 2.318
24 irregular 2 34 134 68 2 0.505 slower 0 2.564473e+05 2.564499e+05 2.602
24 irregular 2 35 135 69 1.500000e+00 0.170 slower 0 2.564529e+05 2.564550e+05 2.112
24 irregular 2 36 136 70 2.500000e+00 0.198 slower 0 2.564559e+05 2.564594e+05 3.579
24 irregular 2 37 137 71 1 0.376 slower 0 2.564612e+05 2.564632e+05 1.960
24 irregular 2 38 138 72 3 0.358 slower 0 2.564642e+05 2.564682e+05 4.020
24 irregular 2 39 139 47 1.500000e+00 0.143 slower 1 2.564690e+05 2.564713e+05 2.280
24 irregular 2 40 140 72 1.500000e+00 0.457 faster 1 2.564724e+05 2.564746e+05 2.123
24 irregular 2 41 141 72 2.500000e+00 0.433 faster 1 2.564756e+05 2.564787e+05 3.099
24 irregular 2 42 142 71 3 0.513 faster 1 2.564799e+05 2.564835e+05 3.564
24 irregular 2 43 143 49 1.500000e+00 0.299 slower 1 2.564845e+05 2.564869e+05 2.456
24 irregular 2 44 144 70 2 0.471 faster 1 2.564881e+05 2.564909e+05 2.808
24 irregular 2 45 145 50 2.500000e+00 0.264 slower 1 2.564925e+05 2.564956e+05 3.104
24 irregular 2 46 146 69 2 0.341 faster 1 2.564966e+05 2.564997e+05 3.104
24 irregular 2 47 147 51 3 0.469 slower 1 2.565009e+05 2.565046e+05 3.710
24 irregular 2 48 148 68 1.500000e+00 0.536 slower 0 2.565058e+05 2.565081e+05 2.297
24 irregular 2 49 149 69 1.500000e+00 0.484 faster 1 2.565092e+05 2.565116e+05 2.370
24 irregular 2 50 150 51 2.500000e+00 0.490 faster 0 2.565127e+05 2.565165e+05 3.785
24 irregular 2 51 151 70 2.500000e+00 0.248 faster 1 2.565174e+05 2.565209e+05 3.515
24 irregular 2 52 152 51 3 0.304 slower 1 2.565219e+05 2.565257e+05 3.834
24 irregular 2 53 153 69 2 0.276 faster 1 2.565267e+05 2.565294e+05 2.697
24 irregular 2 54 154 52 2.500000e+00 0.317 slower 1 2.565303e+05 2.565337e+05 3.335
24 irregular 2 55 155 52 3 0.261 slower 1 2.565346e+05 2.565381e+05 3.474
24 irregular 2 56 156 67 2 0.193 faster 1 2.565390e+05 2.565417e+05 2.745
24 irregular 2 57 157 53 3 0.385 faster 0 2.565428e+05 2.565465e+05 3.721
24 irregular 2 58 158 52 2 0.190 faster 0 2.565473e+05 2.565503e+05 3.000
24 irregular 2 59 159 51 2 0.486 slower 1 2.565515e+05 2.565550e+05 3.539
24 irregular 2 60 160 68 2 0.173 slower 0 2.565558e+05 2.565595e+05 3.664
24 irregular 2 61 161 69 1 0.204 faster 1 2.565604e+05 2.565620e+05 1.664
24 irregular 2 62 162 51 2 0.188 slower 1 2.565629e+05 2.565655e+05 2.622
24 irregular 2 63 163 68 1 0.573 slower 0 2.565667e+05 2.565688e+05 2.085
24 irregular 2 64 164 51 1 0.425 slower 1 2.565699e+05 2.565715e+05 1.652
24 irregular 2 65 165 51 3 0.474 slower 1 2.565727e+05 2.565764e+05 3.703
24 irregular 2 66 166 68 2.500000e+00 0.492 slower 0 2.565776e+05 2.565808e+05 3.218
24 irregular 2 67 167 51 1.500000e+00 0.394 slower 1 2.565818e+05 2.565842e+05 2.380
24 irregular 2 68 168 69 2 0.106 faster 1 2.565853e+05 2.565884e+05 3.084
24 irregular 2 69 169 52 2.500000e+00 0.450 slower 1 2.565895e+05 2.565932e+05 3.731
24 irregular 2 70 170 52 1 0.113 slower 1 2.565940e+05 2.565958e+05 1.810
24 irregular 2 71 171 67 3 0.249 faster 1 2.565968e+05 2.566005e+05 3.691
24 irregular 2 72 172 53 3 0.471 faster 0 2.566016e+05 2.566060e+05 4.394
24 irregular 2 73 173 52 1.500000e+00 0.208 faster 0 2.566068e+05 2.566090e+05 2.208
24 irregular 2 74 174 51 1 0.306 slower 1 2.566100e+05 2.566119e+05 1.878
24 irregular 2 75 175 68 2 0.424 faster 1 2.566130e+05 2.566158e+05 2.831
24 irregular 2 76 176 52 1.500000e+00 0.453 slower 1 2.566170e+05 2.566192e+05 2.288
24 irregular 2 77 177 67 3 0.245 slower 0 2.566201e+05 2.566240e+05 3.816
24 irregular 2 78 178 68 3 0.563 slower 0 2.566252e+05 2.566294e+05 4.232
24 irregular 2 79 179 69 1.500000e+00 0.426 slower 0 2.566305e+05 2.566332e+05 2.663
24 irregular 2 80 180 70 1 0.401 slower 0 2.566342e+05 2.566361e+05 1.828
24 irregular 2 81 181 49 2 0.600 slower 1 2.566373e+05 2.566407e+05 3.416
24 irregular 2 82 182 71 2.500000e+00 0.150 faster 1 2.566432e+05 2.566468e+05 3.621
24 irregular 2 83 183 70 3 0.349 faster 1 2.566493e+05 2.566530e+05 3.722
24 irregular 2 84 184 70 1 0.128 faster 1 2.566538e+05 2.566562e+05 2.454
24 irregular 2 85 185 69 2 0.227 faster 1 2.566571e+05 2.566599e+05 2.733
24 irregular 2 86 186 51 3 0.598 slower 1 2.566612e+05 2.566648e+05 3.622
24 irregular 2 87 187 52 1.500000e+00 0.103 faster 0 2.566656e+05 2.566684e+05 2.798
24 irregular 2 88 188 51 1 0.333 slower 1 2.566694e+05 2.566712e+05 1.832
24 irregular 2 89 189 51 1.500000e+00 0.279 faster 0 2.566722e+05 2.566743e+05 2.140
24 irregular 2 90 190 70 3 0.207 faster 1 2.566752e+05 2.566790e+05 3.778
24 irregular 2 91 191 69 3 0.414 faster 1 2.566800e+05 2.566840e+05 4.027
24 irregular 2 92 192 69 1 0.170 slower 0 2.566849e+05 2.566866e+05 1.751
24 irregular 2 93 193 50 3 0.354 slower 1 2.566900e+05 2.566938e+05 3.800
24 irregular 2 94 194 69 3 0.525 faster 1 2.566965e+05 2.567007e+05 4.241
24 irregular 2 95 195 51 2.500000e+00 0.271 faster 0 2.567032e+05 2.567070e+05 3.851
24 irregular 2 96 196 70 1.500000e+00 0.591 faster 1 2.567083e+05 2.567104e+05 2.089
24 irregular 2 97 197 69 2.500000e+00 0.384 faster 1 2.567114e+05 2.567147e+05 3.247
24 irregular 2 98 198 69 2.500000e+00 0.269 faster 1 2.567169e+05 2.567203e+05 3.475
24 irregular 2 99 199 68 2 0.131 faster 1 2.567211e+05 2.567238e+05 2.653
24 irregular 2 100 200 52 1 0.130 none 2 2.567246e+05 2.567286e+05 3.999
24 regular 3 1 201 52 2 0.459 slower 1 2.568084e+05 2.568112e+05 2.715
24 regular 3 2 202 53 2 0.536 slower 1 2.568133e+05 2.568158e+05 2.585
24 regular 3 3 203 67 2 0.295 faster 1 2.568168e+05 2.568196e+05 2.853
24 regular 3 4 204 54 2 0.284 slower 1 2.568206e+05 2.568233e+05 2.703
24 regular 3 5 205 54 2 0.562 slower 1 2.568245e+05 2.568271e+05 2.618
24 regular 3 6 206 55 2 0.431 faster 0 2.568281e+05 2.568309e+05 2.740
24 regular 3 7 207 66 2 0.504 faster 1 2.568320e+05 2.568350e+05 2.928
24 regular 3 8 208 66 2 0.354 slower 0 2.568360e+05 2.568395e+05 3.557
24 regular 3 9 209 53 2 0.297 slower 1 2.568404e+05 2.568433e+05 2.842
24 regular 3 10 210 66 2 0.277 slower 0 2.568442e+05 2.568470e+05 2.745
24 regular 3 11 211 67 2 0.550 faster 1 2.568481e+05 2.568508e+05 2.618
24 regular 3 12 212 53 2 0.486 slower 1 2.568519e+05 2.568545e+05 2.642
24 regular 3 13 213 66 2 0.197 slower 0 2.568554e+05 2.568581e+05 2.780
24 regular 3 14 214 53 2 0.365 slower 1 2.568591e+05 2.568620e+05 2.835
24 regular 3 15 215 67 2 0.215 faster 1 2.568628e+05 2.568657e+05 2.864
24 regular 3 16 216 54 2 0.118 slower 1 2.568665e+05 2.568692e+05 2.720
24 regular 3 17 217 54 2 0.197 faster 0 2.568700e+05 2.568729e+05 2.841
24 regular 3 18 218 53 2 0.433 faster 0 2.568739e+05 2.568769e+05 3.001
24 regular 3 19 219 52 2 0.453 slower 1 2.568780e+05 2.568808e+05 2.782
24 regular 3 20 220 67 2 0.426 faster 1 2.568819e+05 2.568845e+05 2.608
24 regular 3 21 221 53 2 0.219 slower 1 2.568854e+05 2.568883e+05 2.929
24 regular 3 22 222 66 2 0.532 slower 0 2.568894e+05 2.568927e+05 3.236
24 regular 3 23 223 53 2 0.422 slower 1 2.568937e+05 2.568967e+05 2.979
24 regular 3 24 224 53 2 0.144 faster 0 2.568975e+05 2.569002e+05 2.713
24 regular 3 25 225 52 2 0.397 slower 1 2.569012e+05 2.569040e+05 2.785
24 regular 3 26 226 53 2 0.228 slower 1 2.569049e+05 2.569077e+05 2.814
24 regular 3 27 227 67 2 0.159 slower 0 2.569085e+05 2.569116e+05 3.109
24 regular 3 28 228 68 2 0.530 slower 0 2.569128e+05 2.569156e+05 2.807
24 regular 3 29 229 69 2 0.268 faster 1 2.569165e+05 2.569191e+05 2.608
24 regular 3 30 230 68 2 0.209 faster 1 2.569199e+05 2.569226e+05 2.718
24 regular 3 31 231 68 2 0.424 faster 1 2.569237e+05 2.569265e+05 2.744
24 regular 3 32 232 67 2 0.547 faster 1 2.569277e+05 2.569305e+05 2.822
24 regular 3 33 233 53 2 0.566 slower 1 2.569317e+05 2.569348e+05 3.089
24 regular 3 34 234 66 2 0.155 faster 1 2.569356e+05 2.569383e+05 2.710
24 regular 3 35 235 54 2 0.211 faster 0 2.569391e+05 2.569427e+05 3.603
24 regular 3 36 236 53 2 0.266 slower 1 2.569436e+05 2.569462e+05 2.550
24 regular 3 37 237 54 2 0.491 slower 1 2.569473e+05 2.569500e+05 2.691
24 regular 3 38 238 54 2 0.405 none 2 2.569510e+05 2.569560e+05 5.000
24 regular 3 39 239 66 2 0.166 slower 0 2.569569e+05 2.569593e+05 2.447
24 regular 3 40 240 53 2 0.497 slower 1 2.569604e+05 2.569630e+05 2.595
24 regular 3 41 241 54 2 0.210 slower 1 2.569650e+05 2.569680e+05 2.995
24 regular 3 42 242 66 2 0.365 faster 1 2.569690e+05 2.569714e+05 2.479
24 regular 3 43 243 65 2 0.155 faster 1 2.569722e+05 2.569749e+05 2.660
24 regular 3 44 244 65 2 0.258 slower 0 2.569758e+05 2.569786e+05 2.760
24 regular 3 45 245 54 2 0.492 slower 1 2.569797e+05 2.569824e+05 2.732
24 regular 3 46 246 65 2 0.336 slower 0 2.569834e+05 2.569860e+05 2.621
24 regular 3 47 247 54 2 0.490 slower 1 2.569871e+05 2.569898e+05 2.647
24 regular 3 48 248 54 2 0.495 faster 0 2.569909e+05 2.569937e+05 2.797
24 regular 3 49 249 53 2 0.319 slower 1 2.569947e+05 2.569973e+05 2.651
24 regular 3 50 250 66 2 0.306 slower 0 2.569983e+05 2.570009e+05 2.667
24 regular 3 51 251 67 2 0.108 slower 0 2.570017e+05 2.570044e+05 2.725
24 regular 3 52 252 68 2 0.477 slower 0 2.570055e+05 2.570086e+05 3.130
24 regular 3 53 253 51 2 0.367 slower 1 2.570103e+05 2.570129e+05 2.561
24 regular 3 54 254 69 2 0.427 faster 1 2.570139e+05 2.570167e+05 2.778
24 regular 3 55 255 52 2 0.226 slower 1 2.570176e+05 2.570202e+05 2.586
24 regular 3 56 256 68 2 0.458 slower 0 2.570213e+05 2.570254e+05 4.122
24 regular 3 57 257 69 2 0.299 faster 1 2.570263e+05 2.570288e+05 2.475
24 regular 3 58 258 68 2 0.557 slower 0 2.570300e+05 2.570332e+05 3.192
24 regular 3 59 259 51 2 0.215 slower 1 2.570341e+05 2.570371e+05 3.078
24 regular 3 60 260 69 2 0.166 slower 0 2.570380e+05 2.570407e+05 2.743
24 regular 3 61 261 70 2 0.567 slower 0 2.570419e+05 2.570449e+05 2.960
24 regular 3 62 262 49 2 0.122 slower 1 2.570463e+05 2.570492e+05 2.818
24 regular 3 63 263 70 2 0.525 faster 1 2.570503e+05 2.570530e+05 2.725
24 regular 3 64 264 50 2 0.181 slower 1 2.570539e+05 2.570565e+05 2.624
24 regular 3 65 265 69 2 0.534 faster 1 2.570577e+05 2.570602e+05 2.536
24 regular 3 66 266 51 2 0.171 slower 1 2.570610e+05 2.570658e+05 4.805
24 regular 3 67 267 52 2 0.346 slower 1 2.570668e+05 2.570701e+05 3.255
24 regular 3 68 268 68 2 0.208 faster 1 2.570709e+05 2.570735e+05 2.552
24 regular 3 69 269 67 2 0.305 slower 0 2.570744e+05 2.570773e+05 2.840
24 regular 3 70 270 52 2 0.466 slower 1 2.570785e+05 2.570815e+05 3.026
24 regular 3 71 271 68 2 0.538 faster 1 2.570827e+05 2.570856e+05 2.922
24 regular 3 72 272 67 2 0.422 slower 0 2.570867e+05 2.570905e+05 3.800
24 regular 3 73 273 52 2 0.146 slower 1 2.570912e+05 2.570941e+05 2.861
24 regular 3 74 274 52 2 0.541 slower 1 2.570953e+05 2.570981e+05 2.810
24 regular 3 75 275 53 2 0.243 slower 1 2.570990e+05 2.571018e+05 2.797
24 regular 3 76 276 67 2 0.413 faster 1 2.571028e+05 2.571057e+05 2.833
24 regular 3 77 277 66 2 0.329 faster 1 2.571066e+05 2.571094e+05 2.730
24 regular 3 78 278 66 2 0.375 faster 1 2.571104e+05 2.571132e+05 2.842
24 regular 3 79 279 55 2 0.348 slower 1 2.571142e+05 2.571169e+05 2.670
24 regular 3 80 280 55 2 0.172 faster 0 2.571177e+05 2.571206e+05 2.875
24 regular 3 81 281 66 2 0.335 faster 1 2.571215e+05 2.571245e+05 2.934
24 regular 3 82 282 55 2 0.420 slower 1 2.571255e+05 2.571291e+05 3.570
24 regular 3 83 283 55 2 0.124 faster 0 2.571298e+05 2.571327e+05 2.896
24 regular 3 84 284 66 2 0.279 slower 0 2.571337e+05 2.571381e+05 4.395
24 regular 3 85 285 67 2 0.242 slower 0 2.571389e+05 2.571418e+05 2.903
24 regular 3 86 286 68 2 0.298 faster 1 2.571428e+05 2.571455e+05 2.760
24 regular 3 87 287 53 2 0.286 faster 0 2.571465e+05 2.571497e+05 3.207
24 regular 3 88 288 52 2 0.487 faster 0 2.571508e+05 2.571544e+05 3.574
24 regular 3 89 289 51 2 0.446 slower 1 2.571555e+05 2.571580e+05 2.505
24 regular 3 90 290 69 2 0.297 faster 1 2.571589e+05 2.571615e+05 2.652
24 regular 3 91 291 68 2 0.173 faster 1 2.571623e+05 2.571650e+05 2.639
24 regular 3 92 292 68 2 0.371 faster 1 2.571660e+05 2.571691e+05 3.151
24 regular 3 93 293 53 2 0.491 faster 0 2.571703e+05 2.571734e+05 3.123
24 regular 3 94 294 68 2 0.327 slower 0 2.571744e+05 2.571770e+05 2.678
24 regular 3 95 295 51 2 0.263 slower 1 2.571779e+05 2.571809e+05 2.908
24 regular 3 96 296 69 2 0.122 faster 1 2.571816e+05 2.571845e+05 2.844
24 regular 3 97 297 68 2 0.456 slower 0 2.571861e+05 2.571892e+05 3.086
24 regular 3 98 298 69 2 0.597 slower 0 2.571904e+05 2.571932e+05 2.813
24 regular 3 99 299 50 2 0.404 slower 1 2.571959e+05 2.571986e+05 2.701
24 regular 3 100 300 50 2 0.524 faster 0 2.571998e+05 2.572025e+05 2.689
24 irregular 4 1 301 71 1.500000e+00 0.219 faster 1 2.576355e+05 2.576377e+05 2.248
24 irregular 4 2 302 70 2 0.322 faster 1 2.576387e+05 2.576414e+05 2.729
24 irregular 4 3 303 50 1.500000e+00 0.113 slower 1 2.576422e+05 2.576446e+05 2.331
24 irregular 4 4 304 51 1.500000e+00 0.251 slower 1 2.576454e+05 2.576475e+05 2.075
24 irregular 4 5 305 69 2.500000e+00 0.166 slower 0 2.576484e+05 2.576516e+05 3.251
24 irregular 4 6 306 70 2 0.593 faster 1 2.576529e+05 2.576559e+05 3.007
24 irregular 4 7 307 69 1 0.401 faster 1 2.576570e+05 2.576586e+05 1.692
24 irregular 4 8 308 69 2.500000e+00 0.281 slower 0 2.576596e+05 2.576626e+05 3.046
24 irregular 4 9 309 70 1 0.369 faster 1 2.576643e+05 2.576662e+05 1.947
24 irregular 4 10 310 51 1 0.529 faster 0 2.576674e+05 2.576693e+05 1.950
24 irregular 4 11 311 50 1 0.547 faster 0 2.576705e+05 2.576723e+05 1.824
24 irregular 4 12 312 49 3 0.417 slower 1 2.576746e+05 2.576779e+05 3.357
24 irregular 4 13 313 71 1 0.187 faster 1 2.576788e+05 2.576805e+05 1.782
24 irregular 4 14 314 50 2 0.191 faster 0 2.576814e+05 2.576840e+05 2.592
24 irregular 4 15 315 49 1.500000e+00 0.355 slower 1 2.576860e+05 2.576882e+05 2.193
24 irregular 4 16 316 71 2.500000e+00 0.510 faster 1 2.576894e+05 2.576929e+05 3.446
24 irregular 4 17 317 50 2.500000e+00 0.546 slower 1 2.576941e+05 2.576974e+05 3.328
24 irregular 4 18 318 70 1.500000e+00 0.448 faster 1 2.576985e+05 2.577007e+05 2.218
24 irregular 4 19 319 51 2 0.331 faster 0 2.577028e+05 2.577057e+05 2.883
24 irregular 4 20 320 50 1 0.181 slower 1 2.577065e+05 2.577086e+05 2.095
24 irregular 4 21 321 70 1 0.152 faster 1 2.577105e+05 2.577122e+05 1.691
24 irregular 4 22 322 51 2 0.141 slower 1 2.577130e+05 2.577159e+05 2.886
24 irregular 4 23 323 51 1 0.175 slower 1 2.577168e+05 2.577190e+05 2.218
24 irregular 4 24 324 68 1.500000e+00 0.114 faster 1 2.577198e+05 2.577219e+05 2.161
24 irregular 4 25 325 52 2 0.187 slower 1 2.577228e+05 2.577254e+05 2.613
24 irregular 4 26 326 53 1.500000e+00 0.408 slower 1 2.577274e+05 2.577298e+05 2.385
24 irregular 4 27 327 53 2.500000e+00 0.351 slower 1 2.577308e+05 2.577342e+05 3.365
24 irregular 4 28 328 54 2.500000e+00 0.355 faster 0 2.577352e+05 2.577386e+05 3.373
24 irregular 4 29 329 67 2.500000e+00 0.148 faster 1 2.577394e+05 2.577427e+05 3.321
24 irregular 4 30 330 53 1.500000e+00 0.479 slower 1 2.577478e+05 2.577499e+05 2.119
24 irregular 4 31 331 54 1 0.312 slower 1 2.577509e+05 2.577526e+05 1.739
24 irregular 4 32 332 66 2 0.431 slower 0 2.577537e+05 2.577566e+05 2.937
24 irregular 4 33 333 67 3 0.355 slower 0 2.577577e+05 2.577615e+05 3.834
24 irregular 4 34 334 68 3 0.530 slower 0 2.577627e+05 2.577662e+05 3.587
24 irregular 4 35 335 51 1 0.151 slower 1 2.577671e+05 2.577691e+05 2.031
24 irregular 4 36 336 52 3 0.140 slower 1 2.577699e+05 2.577737e+05 3.827
24 irregular 4 37 337 68 1.500000e+00 0.555 faster 1 2.577750e+05 2.577773e+05 2.391
24 irregular 4 38 338 67 1 0.384 faster 1 2.577784e+05 2.577802e+05 1.756
24 irregular 4 39 339 53 2.500000e+00 0.484 slower 1 2.577813e+05 2.577848e+05 3.440
24 irregular 4 40 340 66 1.500000e+00 0.215 faster 1 2.577862e+05 2.577886e+05 2.390
24 irregular 4 41 341 54 2.500000e+00 0.421 slower 1 2.577897e+05 2.577930e+05 3.318
24 irregular 4 42 342 65 3 0.151 faster 1 2.577938e+05 2.577977e+05 3.858
24 irregular 4 43 343 55 3 0.145 slower 1 2.577985e+05 2.578025e+05 4.008
24 irregular 4 44 344 64 2.500000e+00 0.391 slower 0 2.578036e+05 2.578070e+05 3.445
24 irregular 4 45 345 55 3 0.309 faster 0 2.578080e+05 2.578118e+05 3.832
24 irregular 4 46 346 54 2 0.155 slower 1 2.578127e+05 2.578154e+05 2.726
24 irregular 4 47 347 54 2.500000e+00 0.590 faster 0 2.578167e+05 2.578201e+05 3.495
24 irregular 4 48 348 53 3 0.595 faster 0 2.578214e+05 2.578252e+05 3.743
24 irregular 4 49 349 68 1 0.111 faster 1 2.578259e+05 2.578277e+05 1.741
24 irregular 4 50 350 53 2 0.205 faster 0 2.578286e+05 2.578313e+05 2.761
24 irregular 4 51 351 68 2 0.484 faster 1 2.578324e+05 2.578353e+05 2.820
24 irregular 4 52 352 68 1.500000e+00 0.507 slower 0 2.578364e+05 2.578388e+05 2.339
24 irregular 4 53 353 69 1.500000e+00 0.339 faster 1 2.578397e+05 2.578420e+05 2.246
24 irregular 4 54 354 52 2.500000e+00 0.359 slower 1 2.578439e+05 2.578470e+05 3.108
24 irregular 4 55 355 52 1 0.368 slower 1 2.578480e+05 2.578497e+05 1.626
24 irregular 4 56 356 67 1.500000e+00 0.331 slower 0 2.578507e+05 2.578529e+05 2.224
24 irregular 4 57 357 68 1 0.223 slower 0 2.578538e+05 2.578555e+05 1.709
24 irregular 4 58 358 51 1.500000e+00 0.544 slower 1 2.578578e+05 2.578600e+05 2.144
24 irregular 4 59 359 69 2.500000e+00 0.519 faster 1 2.578612e+05 2.578645e+05 3.280
24 irregular 4 60 360 52 2 0.575 slower 1 2.578662e+05 2.578690e+05 2.731
24 irregular 4 61 361 52 1.500000e+00 0.124 slower 1 2.578698e+05 2.578720e+05 2.215
24 irregular 4 62 362 67 2.500000e+00 0.181 slower 0 2.578736e+05 2.578768e+05 3.264
24 irregular 4 63 363 68 3 0.382 faster 1 2.578779e+05 2.578821e+05 4.272
24 irregular 4 64 364 68 2.500000e+00 0.256 slower 0 2.578831e+05 2.578866e+05 3.525
24 irregular 4 65 365 69 2 0.511 faster 1 2.578878e+05 2.578906e+05 2.832
24 irregular 4 66 366 52 3 0.570 slower 1 2.578918e+05 2.578955e+05 3.712
24 irregular 4 67 367 52 2.500000e+00 0.406 slower 1 2.578966e+05 2.578998e+05 3.165
24 irregular 4 68 368 67 3 0.537 faster 1 2.579010e+05 2.579048e+05 3.826
24 irregular 4 69 369 53 1 0.252 slower 1 2.579057e+05 2.579077e+05 1.997
24 irregular 4 70 370 66 1 0.244 faster 1 2.579086e+05 2.579105e+05 1.853
24 irregular 4 71 371 54 1.500000e+00 0.103 faster 0 2.579113e+05 2.579136e+05 2.350
24 irregular 4 72 372 53 1.500000e+00 0.228 faster 0 2.579145e+05 2.579177e+05 3.185
24 irregular 4 73 373 68 3 0.165 slower 0 2.579185e+05 2.579226e+05 4.163
24 irregular 4 74 374 51 3 0.148 slower 1 2.579234e+05 2.579278e+05 4.408
24 irregular 4 75 375 52 1 0.150 faster 0 2.579287e+05 2.579304e+05 1.738
24 irregular 4 76 376 51 2 0.347 slower 1 2.579314e+05 2.579345e+05 3.037
24 irregular 4 77 377 51 1.500000e+00 0.129 slower 1 2.579353e+05 2.579377e+05 2.384
24 irregular 4 78 378 68 2 0.464 faster 1 2.579388e+05 2.579415e+05 2.747
24 irregular 4 79 379 52 2 0.346 slower 1 2.579425e+05 2.579453e+05 2.792
24 irregular 4 80 380 67 3 0.314 faster 1 2.579463e+05 2.579505e+05 4.178
24 irregular 4 81 381 53 2.500000e+00 0.101 slower 1 2.579512e+05 2.579547e+05 3.451
24 irregular 4 82 382 66 2 0.576 faster 1 2.579559e+05 2.579588e+05 2.818
24 irregular 4 83 383 66 2 0.376 faster 1 2.579603e+05 2.579633e+05 3.035
24 irregular 4 84 384 65 3 0.483 faster 1 2.579645e+05 2.579684e+05 3.920
24 irregular 4 85 385 65 2.500000e+00 0.162 faster 1 2.579692e+05 2.579725e+05 3.316
24 irregular 4 86 386 64 2.500000e+00 0.234 slower 0 2.579734e+05 2.579766e+05 3.180
24 irregular 4 87 387 65 1.500000e+00 0.427 slower 0 2.579777e+05 2.579801e+05 2.407
24 irregular 4 88 388 66 1 0.337 slower 0 2.579811e+05 2.579837e+05 2.596
24 irregular 4 89 389 67 2 0.356 slower 0 2.579847e+05 2.579877e+05 2.948
24 irregular 4 90 390 52 3 0.401 slower 1 2.579888e+05 2.579926e+05 3.859
24 irregular 4 91 391 52 3 0.158 faster 0 2.579934e+05 2.579975e+05 4.080
24 irregular 4 92 392 69 1.500000e+00 0.410 faster 1 2.579986e+05 2.580008e+05 2.247
24 irregular 4 93 393 68 3 0.407 faster 1 2.580019e+05 2.580056e+05 3.674
24 irregular 4 94 394 52 2.500000e+00 0.391 slower 1 2.580066e+05 2.580103e+05 3.631
24 irregular 4 95 395 53 1 0.551 slower 1 2.580115e+05 2.580133e+05 1.824
24 irregular 4 96 396 67 2 0.563 slower 0 2.580145e+05 2.580176e+05 3.023
24 irregular 4 97 397 52 2 0.182 slower 1 2.580184e+05 2.580210e+05 2.605
24 irregular 4 98 398 67 3 0.343 slower 0 2.580220e+05 2.580256e+05 3.611
24 irregular 4 99 399 68 1 0.316 faster 1 2.580266e+05 2.580283e+05 1.700
24 irregular 4 100 400 52 3 0.267 slower 1 2.580304e+05 2.580342e+05 3.781
24 irregular 6 1 501 70 2.500000e+00 0.575 faster 1 3.449637e+05 3.449668e+05 3.070
24 irregular 6 2 502 50 2.500000e+00 0.207 slower 1 3.449676e+05 3.449709e+05 3.307
24 irregular 6 3 503 52 1.500000e+00 0.106 slower 1 3.449717e+05 3.449739e+05 2.219
24 irregular 6 4 504 52 1 0.146 slower 1 3.449747e+05 3.449765e+05 1.824
24 irregular 6 5 505 66 2 0.584 faster 1 3.449778e+05 3.449802e+05 2.426
24 irregular 6 6 506 66 1 0.316 faster 1 3.449812e+05 3.449829e+05 1.658
24 irregular 6 7 507 56 1 0.391 faster 0 3.449839e+05 3.449854e+05 1.556
24 irregular 6 8 508 66 3 0.119 faster 1 3.449862e+05 3.449903e+05 4.088
24 irregular 6 9 509 66 3 0.596 slower 0 3.449916e+05 3.449953e+05 3.711
24 irregular 6 10 510 52 1.500000e+00 0.441 slower 1 3.449964e+05 3.449987e+05 2.359
24 irregular 6 11 511 54 3 0.161 slower 1 3.449996e+05 3.450035e+05 3.927
24 irregular 6 12 512 66 1.500000e+00 0.515 faster 1 3.450047e+05 3.450072e+05 2.535
24 irregular 6 13 513 56 1 0.300 faster 0 3.450082e+05 3.450103e+05 2.116
24 irregular 6 14 514 66 2.500000e+00 0.595 slower 0 3.450116e+05 3.450153e+05 3.746
24 irregular 6 15 515 52 2 0.566 slower 1 3.450165e+05 3.450196e+05 3.038
24 irregular 6 16 516 52 3 0.344 slower 1 3.450206e+05 3.450243e+05 3.744
24 irregular 6 17 517 54 1 0.585 faster 0 3.450256e+05 3.450275e+05 1.909
24 irregular 6 18 518 67 1.500000e+00 0.267 faster 1 3.450284e+05 3.450306e+05 2.183
24 irregular 6 19 519 67 3 0.241 slower 0 3.450332e+05 3.450371e+05 3.947
24 irregular 6 20 520 52 1.500000e+00 0.505 slower 1 3.450387e+05 3.450409e+05 2.151
24 irregular 6 21 521 53 3 0.219 slower 1 3.450423e+05 3.450460e+05 3.687
24 irregular 6 22 522 67 1 0.297 faster 1 3.450469e+05 3.450486e+05 1.630
24 irregular 6 23 523 66 1 0.139 faster 1 3.450493e+05 3.450511e+05 1.728
24 irregular 6 24 524 66 3 0.186 slower 0 3.450519e+05 3.450558e+05 3.848
24 irregular 6 25 525 67 2.500000e+00 0.118 slower 0 3.450567e+05 3.450600e+05 3.284
24 irregular 6 26 526 68 2 0.326 faster 1 3.450610e+05 3.450636e+05 2.666
24 irregular 6 27 527 67 1.500000e+00 0.336 faster 1 3.450646e+05 3.450670e+05 2.375
24 irregular 6 28 528 53 2.500000e+00 0.124 slower 1 3.450678e+05 3.450712e+05 3.400
24 irregular 6 29 529 66 2 0.161 faster 1 3.450737e+05 3.450766e+05 2.858
24 irregular 6 30 530 66 1 0.287 faster 1 3.450776e+05 3.450793e+05 1.694
24 irregular 6 31 531 55 2 0.584 slower 1 3.450805e+05 3.450831e+05 2.609
24 irregular 6 32 532 65 1 0.401 faster 1 3.450842e+05 3.450858e+05 1.599
24 irregular 6 33 533 64 3 0.484 slower 0 3.450869e+05 3.450907e+05 3.747
24 irregular 6 34 534 65 1.500000e+00 0.161 faster 1 3.450915e+05 3.450937e+05 2.173
24 irregular 6 35 535 55 1 0.131 slower 1 3.450945e+05 3.450961e+05 1.614
24 irregular 6 36 536 64 2.500000e+00 0.580 faster 1 3.450974e+05 3.451009e+05 3.499
24 irregular 6 37 537 56 2 0.381 slower 1 3.451019e+05 3.451048e+05 2.851
24 irregular 6 38 538 63 3 0.311 slower 0 3.451063e+05 3.451104e+05 4.157
24 irregular 6 39 539 56 3 0.146 slower 1 3.451128e+05 3.451166e+05 3.841
24 irregular 6 40 540 64 1.500000e+00 0.525 faster 1 3.451178e+05 3.451200e+05 2.155
24 irregular 6 41 541 57 2.500000e+00 0.239 slower 1 3.451209e+05 3.451241e+05 3.197
24 irregular 6 42 542 63 3 0.576 faster 1 3.451253e+05 3.451296e+05 4.255
24 irregular 6 43 543 58 2 0.117 faster 0 3.451313e+05 3.451341e+05 2.790
24 irregular 6 44 544 57 2 0.533 slower 1 3.451353e+05 3.451379e+05 2.645
24 irregular 6 45 545 63 1.500000e+00 0.517 faster 1 3.451391e+05 3.451422e+05 3.086
24 irregular 6 46 546 62 2.500000e+00 0.263 slower 0 3.451431e+05 3.451472e+05 4.132
24 irregular 6 47 547 63 2.500000e+00 0.209 slower 0 3.451484e+05 3.451520e+05 3.602
24 irregular 6 48 548 64 2 0.526 slower 0 3.451532e+05 3.451564e+05 3.157
24 irregular 6 49 549 55 1 0.318 faster 0 3.451575e+05 3.451595e+05 1.927
24 irregular 6 50 550 66 2 0.217 faster 1 3.451604e+05 3.451631e+05 2.742
24 irregular 6 51 551 66 2 0.389 slower 0 3.451657e+05 3.451690e+05 3.320
24 irregular 6 52 552 67 2 0.292 faster 1 3.451702e+05 3.451730e+05 2.841
24 irregular 6 53 553 54 1.500000e+00 0.600 slower 1 3.451743e+05 3.451766e+05 2.313
24 irregular 6 54 554 54 3 0.227 slower 1 3.451775e+05 3.451812e+05 3.697
24 irregular 6 55 555 65 1.500000e+00 0.439 faster 1 3.451823e+05 3.451846e+05 2.309
24 irregular 6 56 556 65 2 0.358 slower 0 3.451861e+05 3.451888e+05 2.702
24 irregular 6 57 557 66 1.500000e+00 0.573 slower 0 3.451918e+05 3.451939e+05 2.122
24 irregular 6 58 558 53 1 0.202 slower 1 3.451963e+05 3.451979e+05 1.661
24 irregular 6 59 559 66 1 0.450 slower 0 3.451990e+05 3.452010e+05 2.002
24 irregular 6 60 560 53 1.500000e+00 0.326 slower 1 3.452020e+05 3.452042e+05 2.226
24 irregular 6 61 561 67 2.500000e+00 0.368 faster 1 3.452053e+05 3.452084e+05 3.075
24 irregular 6 62 562 54 1 0.258 slower 1 3.452118e+05 3.452140e+05 2.176
24 irregular 6 63 563 66 2.500000e+00 0.204 slower 0 3.452166e+05 3.452201e+05 3.512
24 irregular 6 64 564 67 2.500000e+00 0.209 faster 1 3.452209e+05 3.452243e+05 3.364
24 irregular 6 65 565 54 1.500000e+00 0.471 slower 1 3.452269e+05 3.452292e+05 2.288
24 irregular 6 66 566 54 1.500000e+00 0.150 slower 1 3.452300e+05 3.452322e+05 2.216
24 irregular 6 67 567 65 2.500000e+00 0.262 slower 0 3.452331e+05 3.452362e+05 3.071
24 irregular 6 68 568 54 2 0.321 slower 1 3.452378e+05 3.452407e+05 2.819
24 irregular 6 69 569 54 2.500000e+00 0.271 slower 1 3.452422e+05 3.452453e+05 3.139
24 irregular 6 70 570 55 2.500000e+00 0.442 slower 1 3.452470e+05 3.452503e+05 3.239
24 irregular 6 71 571 65 2 0.413 slower 0 3.452524e+05 3.452552e+05 2.841
24 irregular 6 72 572 54 2 0.474 slower 1 3.452563e+05 3.452591e+05 2.769
24 irregular 6 73 573 55 3 0.553 slower 1 3.452603e+05 3.452641e+05 3.717
24 irregular 6 74 574 55 2 0.586 slower 1 3.452653e+05 3.452681e+05 2.826
24 irregular 6 75 575 56 2.500000e+00 0.373 slower 1 3.452692e+05 3.452725e+05 3.310
24 irregular 6 76 576 56 2.500000e+00 0.384 faster 0 3.452735e+05 3.452766e+05 3.103
24 irregular 6 77 577 55 2 0.139 slower 1 3.452774e+05 3.452802e+05 2.827
24 irregular 6 78 578 64 1 0.373 slower 0 3.452830e+05 3.452847e+05 1.669
24 irregular 6 79 579 55 2 0.568 faster 0 3.452859e+05 3.452886e+05 2.650
24 irregular 6 80 580 54 1.500000e+00 0.338 slower 1 3.452896e+05 3.452919e+05 2.326
24 irregular 6 81 581 66 3 0.245 faster 1 3.452928e+05 3.452965e+05 3.713
24 irregular 6 82 582 65 1.500000e+00 0.143 faster 1 3.452973e+05 3.452996e+05 2.234
24 irregular 6 83 583 65 1.500000e+00 0.477 faster 1 3.453007e+05 3.453028e+05 2.096
24 irregular 6 84 584 56 2.500000e+00 0.268 slower 1 3.453037e+05 3.453070e+05 3.256
24 irregular 6 85 585 64 2 0.436 faster 1 3.453094e+05 3.453132e+05 3.867
24 irregular 6 86 586 57 3 0.272 slower 1 3.453148e+05 3.453187e+05 3.875
24 irregular 6 87 587 57 1 0.172 slower 1 3.453195e+05 3.453213e+05 1.752
24 irregular 6 88 588 62 1 0.251 slower 0 3.453222e+05 3.453239e+05 1.731
24 irregular 6 89 589 57 3 0.108 slower 1 3.453247e+05 3.453283e+05 3.552
24 irregular 6 90 590 57 1.500000e+00 0.335 slower 1 3.453293e+05 3.453313e+05 2.077
24 irregular 6 91 591 58 1 0.296 faster 0 3.453323e+05 3.453340e+05 1.677
24 irregular 6 92 592 57 2.500000e+00 0.402 slower 1 3.453351e+05 3.453385e+05 3.434
24 irregular 6 93 593 57 3 0.363 slower 1 3.453413e+05 3.453451e+05 3.834
24 irregular 6 94 594 58 3 0.302 slower 1 3.453461e+05 3.453498e+05 3.715
24 irregular 6 95 595 58 2.500000e+00 0.119 slower 1 3.453506e+05 3.453544e+05 3.781
24 irregular 6 96 596 61 3 0.156 faster 1 3.453552e+05 3.453598e+05 4.585
24 irregular 6 97 597 59 1.500000e+00 0.292 slower 1 3.453613e+05 3.453637e+05 2.378
24 irregular 6 98 598 61 1 0.274 faster 1 3.453646e+05 3.453664e+05 1.762
24 irregular 6 99 599 61 3 0.496 faster 1 3.453675e+05 3.453714e+05 3.874
24 irregular 6 100 600 61 1 0.321 slower 0 3.453726e+05 3.453746e+05 1.967
24 regular 7 1 601 62 1.500000e+00 0.246 faster 1 3.454457e+05 3.454479e+05 2.198
24 regular 7 2 602 58 1.500000e+00 0.512 slower 1 3.454496e+05 3.454517e+05 2.080
24 regular 7 3 603 61 1.500000e+00 0.448 faster 1 3.454528e+05 3.454552e+05 2.382
24 regular 7 4 604 59 1.500000e+00 0.126 faster 0 3.454559e+05 3.454587e+05 2.741
24 regular 7 5 605 62 1.500000e+00 0.533 slower 0 3.454598e+05 3.454619e+05 2.063
24 regular 7 6 606 63 1.500000e+00 0.466 slower 0 3.454630e+05 3.454653e+05 2.344
24 regular 7 7 607 56 1.500000e+00 0.480 slower 1 3.454665e+05 3.454688e+05 2.351
24 regular 7 8 608 57 1.500000e+00 0.369 faster 0 3.454698e+05 3.454720e+05 2.181
24 regular 7 9 609 56 1.500000e+00 0.426 slower 1 3.454730e+05 3.454753e+05 2.271
24 regular 7 10 610 64 1.500000e+00 0.496 slower 0 3.454764e+05 3.454787e+05 2.229
24 regular 7 11 611 65 1.500000e+00 0.562 slower 0 3.454799e+05 3.454824e+05 2.520
24 regular 7 12 612 54 1.500000e+00 0.553 slower 1 3.454836e+05 3.454858e+05 2.257
24 regular 7 13 613 55 1.500000e+00 0.514 slower 1 3.454870e+05 3.454896e+05 2.592
24 regular 7 14 614 55 1.500000e+00 0.589 slower 1 3.454908e+05 3.454930e+05 2.157
24 regular 7 15 615 64 1.500000e+00 0.447 slower 0 3.454941e+05 3.454963e+05 2.200
24 regular 7 16 616 65 1.500000e+00 0.582 slower 0 3.454997e+05 3.455020e+05 2.331
24 regular 7 17 617 54 1.500000e+00 0.459 slower 1 3.455035e+05 3.455057e+05 2.134
24 regular 7 18 618 66 1.500000e+00 0.501 slower 0 3.455068e+05 3.455089e+05 2.090
24 regular 7 19 619 67 1.500000e+00 0.416 slower 0 3.455100e+05 3.455123e+05 2.303
24 regular 7 20 620 52 1.500000e+00 0.273 slower 1 3.455132e+05 3.455153e+05 2.154
24 regular 7 21 621 67 1.500000e+00 0.346 slower 0 3.455168e+05 3.455191e+05 2.328
24 regular 7 22 622 68 1.500000e+00 0.180 faster 1 3.455199e+05 3.455220e+05 2.102
24 regular 7 23 623 68 1.500000e+00 0.329 slower 0 3.455235e+05 3.455258e+05 2.356
24 regular 7 24 624 51 1.500000e+00 0.187 slower 1 3.455267e+05 3.455289e+05 2.255
24 regular 7 25 625 52 1.500000e+00 0.287 slower 1 3.455317e+05 3.455340e+05 2.352
24 regular 7 26 626 52 1.500000e+00 0.293 slower 1 3.455366e+05 3.455388e+05 2.173
24 regular 7 27 627 53 1.500000e+00 0.406 slower 1 3.455415e+05 3.455438e+05 2.222
24 regular 7 28 628 53 1.500000e+00 0.102 slower 1 3.455445e+05 3.455467e+05 2.221
24 regular 7 29 629 54 1.500000e+00 0.382 slower 1 3.455508e+05 3.455529e+05 2.154
24 regular 7 30 630 66 1.500000e+00 0.276 slower 0 3.455538e+05 3.455561e+05 2.297
24 regular 7 31 631 67 1.500000e+00 0.446 slower 0 3.455581e+05 3.455605e+05 2.353
24 regular 7 32 632 52 1.500000e+00 0.235 slower 1 3.455614e+05 3.455636e+05 2.203
24 regular 7 33 633 67 1.500000e+00 0.238 slower 0 3.455662e+05 3.455692e+05 3.083
24 regular 7 34 634 52 1.500000e+00 0.383 slower 1 3.455716e+05 3.455737e+05 2.194
24 regular 7 35 635 52 1.500000e+00 0.521 slower 1 3.455749e+05 3.455771e+05 2.169
24 regular 7 36 636 53 1.500000e+00 0.487 slower 1 3.455782e+05 3.455805e+05 2.245
24 regular 7 37 637 67 1.500000e+00 0.364 slower 0 3.455814e+05 3.455836e+05 2.156
24 regular 7 38 638 68 1.500000e+00 0.498 slower 0 3.455847e+05 3.455869e+05 2.153
24 regular 7 39 639 51 1.500000e+00 0.521 slower 1 3.455880e+05 3.455901e+05 2.026
24 regular 7 40 640 52 1.500000e+00 0.598 slower 1 3.455913e+05 3.455933e+05 2.052
24 regular 7 41 641 52 1.500000e+00 0.368 slower 1 3.455974e+05 3.455995e+05 2.143
24 regular 7 42 642 67 1.500000e+00 0.418 faster 1 3.456006e+05 3.456030e+05 2.418
24 regular 7 43 643 67 1.500000e+00 0.541 slower 0 3.456042e+05 3.456063e+05 2.182
24 regular 7 44 644 52 1.500000e+00 0.118 slower 1 3.456071e+05 3.456094e+05 2.270
24 regular 7 45 645 67 1.500000e+00 0.438 slower 0 3.456127e+05 3.456148e+05 2.122
24 regular 7 46 646 68 1.500000e+00 0.129 slower 0 3.456156e+05 3.456177e+05 2.093
24 regular 7 47 647 69 1.500000e+00 0.143 slower 0 3.456189e+05 3.456211e+05 2.216
24 regular 7 48 648 50 1.500000e+00 0.177 slower 1 3.456219e+05 3.456241e+05 2.170
24 regular 7 49 649 50 1.500000e+00 0.495 slower 1 3.456252e+05 3.456275e+05 2.278
24 regular 7 50 650 51 1.500000e+00 0.575 slower 1 3.456306e+05 3.456327e+05 2.165
24 regular 7 51 651 69 1.500000e+00 0.349 faster 1 3.456337e+05 3.456363e+05 2.547
24 regular 7 52 652 52 1.500000e+00 0.230 slower 1 3.456371e+05 3.456393e+05 2.166
24 regular 7 53 653 68 1.500000e+00 0.596 slower 0 3.456442e+05 3.456465e+05 2.254
24 regular 7 54 654 51 1.500000e+00 0.102 slower 1 3.456472e+05 3.456495e+05 2.241
24 regular 7 55 655 52 1.500000e+00 0.340 slower 1 3.456527e+05 3.456548e+05 2.073
24 regular 7 56 656 68 1.500000e+00 0.436 slower 0 3.456559e+05 3.456582e+05 2.365
24 regular 7 57 657 69 1.500000e+00 0.296 faster 1 3.456592e+05 3.456616e+05 2.447
24 regular 7 58 658 68 1.500000e+00 0.210 faster 1 3.456625e+05 3.456647e+05 2.272
24 regular 7 59 659 68 1.500000e+00 0.418 faster 1 3.456658e+05 3.456681e+05 2.342
24 regular 7 60 660 53 1.500000e+00 0.430 slower 1 3.456692e+05 3.456720e+05 2.834
24 regular 7 61 661 67 1.500000e+00 0.408 slower 0 3.456731e+05 3.456762e+05 3.109
24 regular 7 62 662 52 1.500000e+00 0.132 slower 1 3.456770e+05 3.456792e+05 2.199
24 regular 7 63 663 67 1.500000e+00 0.496 slower 0 3.456803e+05 3.456830e+05 2.666
24 regular 7 64 664 52 1.500000e+00 0.389 slower 1 3.456840e+05 3.456863e+05 2.303
24 regular 7 65 665 68 1.500000e+00 0.168 faster 1 3.456871e+05 3.456896e+05 2.551
24 regular 7 66 666 53 1.500000e+00 0.597 slower 1 3.456909e+05 3.456933e+05 2.421
24 regular 7 67 667 67 1.500000e+00 0.190 faster 1 3.456941e+05 3.456968e+05 2.669
24 regular 7 68 668 66 1.500000e+00 0.524 faster 1 3.456980e+05 3.457004e+05 2.495
24 regular 7 69 669 54 1.500000e+00 0.485 slower 1 3.457016e+05 3.457038e+05 2.202
24 regular 7 70 670 65 1.500000e+00 0.248 slower 0 3.457047e+05 3.457074e+05 2.721
24 regular 7 71 671 54 1.500000e+00 0.220 slower 1 3.457082e+05 3.457105e+05 2.242
24 regular 7 72 672 54 1.500000e+00 0.113 slower 1 3.457112e+05 3.457134e+05 2.175
24 regular 7 73 673 55 1.500000e+00 0.123 faster 0 3.457142e+05 3.457169e+05 2.744
24 regular 7 74 674 54 1.500000e+00 0.501 faster 0 3.457181e+05 3.457209e+05 2.795
24 regular 7 75 675 67 1.500000e+00 0.217 slower 0 3.457232e+05 3.457262e+05 3.016
24 regular 7 76 676 52 1.500000e+00 0.238 slower 1 3.457284e+05 3.457305e+05 2.080
24 regular 7 77 677 68 1.500000e+00 0.378 slower 0 3.457315e+05 3.457341e+05 2.652
24 regular 7 78 678 51 1.500000e+00 0.130 slower 1 3.457349e+05 3.457371e+05 2.178
24 regular 7 79 679 68 1.500000e+00 0.196 slower 0 3.457379e+05 3.457401e+05 2.156
24 regular 7 80 680 51 1.500000e+00 0.519 slower 1 3.457412e+05 3.457433e+05 2.131
24 regular 7 81 681 51 1.500000e+00 0.346 slower 1 3.457443e+05 3.457463e+05 1.962
24 regular 7 82 682 52 1.500000e+00 0.579 faster 0 3.457475e+05 3.457503e+05 2.817
24 regular 7 83 683 51 1.500000e+00 0.111 slower 1 3.457511e+05 3.457534e+05 2.292
24 regular 7 84 684 69 1.500000e+00 0.584 slower 0 3.457546e+05 3.457569e+05 2.371
24 regular 7 85 685 70 1.500000e+00 0.379 slower 0 3.457596e+05 3.457621e+05 2.574
24 regular 7 86 686 71 1.500000e+00 0.123 faster 1 3.457632e+05 3.457656e+05 2.473
24 regular 7 87 687 50 1.500000e+00 0.397 faster 0 3.457667e+05 3.457690e+05 2.307
24 regular 7 88 688 71 1.500000e+00 0.527 faster 1 3.457701e+05 3.457724e+05 2.222
24 regular 7 89 689 71 1.500000e+00 0.179 faster 1 3.457738e+05 3.457761e+05 2.260
24 regular 7 90 690 50 1.500000e+00 0.335 faster 0 3.457770e+05 3.457793e+05 2.278
24 regular 7 91 691 71 1.500000e+00 0.274 faster 1 3.458060e+05 3.458083e+05 2.245
24 regular 7 92 692 71 1.500000e+00 0.231 faster 1 3.458091e+05 3.458113e+05 2.200
24 regular 7 93 693 50 1.500000e+00 0.420 slower 1 3.458124e+05 3.458146e+05 2.183
24 regular 7 94 694 70 1.500000e+00 0.341 faster 1 3.458156e+05 3.458180e+05 2.440
24 regular 7 95 695 69 1.500000e+00 0.507 faster 1 3.458191e+05 3.458217e+05 2.538
24 regular 7 96 696 69 1.500000e+00 0.148 slower 0 3.458225e+05 3.458254e+05 2.927
24 regular 7 97 697 70 1.500000e+00 0.258 faster 1 3.458263e+05 3.458287e+05 2.425
24 regular 7 98 698 51 1.500000e+00 0.107 slower 1 3.458295e+05 3.458317e+05 2.205
24 regular 7 99 699 51 1.500000e+00 0.276 slower 1 3.458326e+05 3.458348e+05 2.206
24 regular 7 100 700 68 1.500000e+00 0.136 faster 1 3.458356e+05 3.458380e+05 2.385
24 irregular 8 1 701 68 3 0.450 slower 0 3.460058e+05 3.460100e+05 4.173
24 irregular 8 2 702 51 2 0.290 slower 1 3.460115e+05 3.460141e+05 2.671
24 irregular 8 3 703 68 2.500000e+00 0.111 slower 0 3.460149e+05 3.460189e+05 4.028
24 irregular 8 4 704 69 2.500000e+00 0.532 slower 0 3.460201e+05 3.460236e+05 3.526
24 irregular 8 5 705 50 1.500000e+00 0.303 slower 1 3.460246e+05 3.460268e+05 2.225
24 irregular 8 6 706 70 1 0.393 faster 1 3.460279e+05 3.460302e+05 2.285
24 irregular 8 7 707 51 1 0.117 slower 1 3.460310e+05 3.460327e+05 1.739
24 irregular 8 8 708 69 1 0.167 slower 0 3.460335e+05 3.460354e+05 1.864
24 irregular 8 9 709 50 1 0.435 slower 1 3.460364e+05 3.460382e+05 1.793
24 irregular 8 10 710 51 1.500000e+00 0.429 slower 1 3.460393e+05 3.460415e+05 2.178
24 irregular 8 11 711 69 1.500000e+00 0.261 faster 1 3.460424e+05 3.460449e+05 2.519
24 irregular 8 12 712 52 2 0.278 slower 1 3.460459e+05 3.460484e+05 2.557
24 irregular 8 13 713 52 2.500000e+00 0.185 slower 1 3.460493e+05 3.460526e+05 3.310
24 irregular 8 14 714 53 2.500000e+00 0.270 slower 1 3.460535e+05 3.460568e+05 3.306
24 irregular 8 15 715 67 1.500000e+00 0.309 slower 0 3.460578e+05 3.460600e+05 2.172
24 irregular 8 16 716 68 3 0.470 slower 0 3.460611e+05 3.460651e+05 4.008
24 irregular 8 17 717 51 2 0.129 slower 1 3.460659e+05 3.460686e+05 2.710
24 irregular 8 18 718 52 2.500000e+00 0.111 slower 1 3.460694e+05 3.460727e+05 3.237
24 irregular 8 19 719 68 2.500000e+00 0.379 slower 0 3.460752e+05 3.460783e+05 3.125
24 irregular 8 20 720 69 2 0.547 slower 0 3.460805e+05 3.460832e+05 2.619
24 irregular 8 21 721 70 1 0.451 slower 0 3.460846e+05 3.460862e+05 1.627
24 irregular 8 22 722 71 1.500000e+00 0.175 faster 1 3.460871e+05 3.460893e+05 2.268
24 irregular 8 23 723 50 1 0.497 slower 1 3.460905e+05 3.460923e+05 1.765
24 irregular 8 24 724 70 2.500000e+00 0.141 slower 0 3.460931e+05 3.460963e+05 3.192
24 irregular 8 25 725 49 3 0.429 slower 1 3.460974e+05 3.461010e+05 3.634
24 irregular 8 26 726 50 2.500000e+00 0.147 slower 1 3.461034e+05 3.461066e+05 3.177
24 irregular 8 27 727 70 2 0.364 slower 0 3.461076e+05 3.461104e+05 2.812
24 irregular 8 28 728 49 1.500000e+00 0.241 none 2 3.461116e+05 3.461161e+05 4.499
24 irregular 8 29 729 71 3 0.190 slower 0 3.461170e+05 3.461205e+05 3.514
24 irregular 8 30 730 72 1.500000e+00 0.575 faster 1 3.461217e+05 3.461240e+05 2.209
24 irregular 8 31 731 71 2.500000e+00 0.113 slower 0 3.461247e+05 3.461280e+05 3.311
24 irregular 8 32 732 48 1.500000e+00 0.204 slower 1 3.461309e+05 3.461332e+05 2.327
24 irregular 8 33 733 72 2 0.286 faster 1 3.461341e+05 3.461372e+05 3.084
24 irregular 8 34 734 71 3 0.210 faster 1 3.461381e+05 3.461419e+05 3.789
24 irregular 8 35 735 49 2 0.495 slower 1 3.461430e+05 3.461456e+05 2.596
24 irregular 8 36 736 50 1.500000e+00 0.228 slower 1 3.461465e+05 3.461488e+05 2.235
24 irregular 8 37 737 70 1 0.512 faster 1 3.461499e+05 3.461518e+05 1.824
24 irregular 8 38 738 69 1.500000e+00 0.260 slower 0 3.461527e+05 3.461548e+05 2.151
24 irregular 8 39 739 70 3 0.393 faster 1 3.461559e+05 3.461600e+05 4.032
24 irregular 8 40 740 50 1.500000e+00 0.547 slower 1 3.461624e+05 3.461645e+05 2.107
24 irregular 8 41 741 69 2.500000e+00 0.504 faster 1 3.461656e+05 3.461690e+05 3.402
24 irregular 8 42 742 69 1.500000e+00 0.389 faster 1 3.461712e+05 3.461736e+05 2.406
24 irregular 8 43 743 52 2 0.500 slower 1 3.461747e+05 3.461774e+05 2.661
24 irregular 8 44 744 68 3 0.463 faster 1 3.461785e+05 3.461825e+05 3.991
24 irregular 8 45 745 53 2 0.581 slower 1 3.461838e+05 3.461866e+05 2.779
24 irregular 8 46 746 53 2.500000e+00 0.593 faster 0 3.461893e+05 3.461931e+05 3.801
24 irregular 8 47 747 68 1 0.318 slower 0 3.461950e+05 3.461967e+05 1.737
24 irregular 8 48 748 69 1.500000e+00 0.233 faster 1 3.461976e+05 3.462003e+05 2.612
24 irregular 8 49 749 68 2 0.324 slower 0 3.462012e+05 3.462041e+05 2.851
24 irregular 8 50 750 69 3 0.545 faster 1 3.462053e+05 3.462093e+05 4.002
24 irregular 8 51 751 51 3 0.228 slower 1 3.462102e+05 3.462145e+05 4.281
24 irregular 8 52 752 52 3 0.211 slower 1 3.462186e+05 3.462228e+05 4.143
24 irregular 8 53 753 68 1 0.279 faster 1 3.462237e+05 3.462257e+05 1.977
24 irregular 8 54 754 53 3 0.142 slower 1 3.462265e+05 3.462312e+05 4.696
24 irregular 8 55 755 67 1.500000e+00 0.528 slower 0 3.462324e+05 3.462347e+05 2.371
24 irregular 8 56 756 52 1 0.413 slower 1 3.462358e+05 3.462377e+05 1.869
24 irregular 8 57 757 53 1.500000e+00 0.517 slower 1 3.462389e+05 3.462411e+05 2.204
24 irregular 8 58 758 67 3 0.404 slower 0 3.462422e+05 3.462461e+05 3.904
24 irregular 8 59 759 52 2.500000e+00 0.325 slower 1 3.462471e+05 3.462503e+05 3.234
24 irregular 8 60 760 53 1.500000e+00 0.346 faster 0 3.462513e+05 3.462534e+05 2.109
24 irregular 8 61 761 68 2 0.397 faster 1 3.462545e+05 3.462576e+05 3.102
24 irregular 8 62 762 52 2.500000e+00 0.344 faster 0 3.462586e+05 3.462625e+05 3.910
24 irregular 8 63 763 51 1 0.138 slower 1 3.462633e+05 3.462650e+05 1.706
24 irregular 8 64 764 52 2.500000e+00 0.449 slower 1 3.462661e+05 3.462697e+05 3.593
24 irregular 8 65 765 52 3 0.111 slower 1 3.462705e+05 3.462744e+05 3.828
24 irregular 8 66 766 53 1 0.288 faster 0 3.462753e+05 3.462771e+05 1.768
24 irregular 8 67 767 52 2.500000e+00 0.325 faster 0 3.462781e+05 3.462816e+05 3.557
24 irregular 8 68 768 69 2.500000e+00 0.584 faster 1 3.462828e+05 3.462862e+05 3.359
24 irregular 8 69 769 51 2.500000e+00 0.354 slower 1 3.462872e+05 3.462904e+05 3.193
24 irregular 8 70 770 68 1 0.192 slower 0 3.462912e+05 3.462935e+05 2.253
24 irregular 8 71 771 51 1 0.481 faster 0 3.462946e+05 3.462969e+05 2.280
24 irregular 8 72 772 70 2 0.425 faster 1 3.462980e+05 3.463009e+05 2.927
24 irregular 8 73 773 50 2 0.204 slower 1 3.463035e+05 3.463060e+05 2.579
24 irregular 8 74 774 69 2.500000e+00 0.123 faster 1 3.463085e+05 3.463120e+05 3.542
24 irregular 8 75 775 69 1 0.218 faster 1 3.463129e+05 3.463147e+05 1.830
24 irregular 8 76 776 52 3 0.545 slower 1 3.463159e+05 3.463196e+05 3.666
24 irregular 8 77 777 68 1.500000e+00 0.389 faster 1 3.463207e+05 3.463228e+05 2.110
24 irregular 8 78 778 53 3 0.312 faster 0 3.463237e+05 3.463276e+05 3.807
24 irregular 8 79 779 68 2 0.493 faster 1 3.463287e+05 3.463313e+05 2.629
24 irregular 8 80 780 52 3 0.266 slower 1 3.463323e+05 3.463361e+05 3.797
24 irregular 8 81 781 53 2 0.136 faster 0 3.463369e+05 3.463395e+05 2.638
24 irregular 8 82 782 52 2 0.582 faster 0 3.463408e+05 3.463436e+05 2.871
24 irregular 8 83 783 69 1 0.236 faster 1 3.463445e+05 3.463464e+05 1.888
24 irregular 8 84 784 51 3 0.364 slower 1 3.463474e+05 3.463514e+05 4.001
24 irregular 8 85 785 68 2 0.142 faster 1 3.463522e+05 3.463551e+05 2.823
24 irregular 8 86 786 68 1 0.288 faster 1 3.463560e+05 3.463577e+05 1.634
24 irregular 8 87 787 67 3 0.239 faster 1 3.463586e+05 3.463625e+05 3.968
24 irregular 8 88 788 53 1 0.244 faster 0 3.463635e+05 3.463654e+05 1.908
24 irregular 8 89 789 52 1.500000e+00 0.251 slower 1 3.463677e+05 3.463698e+05 2.092
24 irregular 8 90 790 67 2 0.105 faster 1 3.463706e+05 3.463734e+05 2.788
24 irregular 8 91 791 53 2 0.396 faster 0 3.463745e+05 3.463771e+05 2.621
24 irregular 8 92 792 52 3 0.486 faster 0 3.463782e+05 3.463823e+05 4.040
24 irregular 8 93 793 69 2.500000e+00 0.290 faster 1 3.463832e+05 3.463864e+05 3.231
24 irregular 8 94 794 52 1 0.201 faster 0 3.463873e+05 3.463890e+05 1.713
24 irregular 8 95 795 69 2.500000e+00 0.327 faster 1 3.463900e+05 3.463933e+05 3.272
24 irregular 8 96 796 69 1.500000e+00 0.314 faster 1 3.463956e+05 3.463979e+05 2.226
24 irregular 8 97 797 52 1.500000e+00 0.367 faster 0 3.464006e+05 3.464029e+05 2.357
24 irregular 8 98 798 69 3 0.314 faster 1 3.464039e+05 3.464075e+05 3.633
24 irregular 8 99 799 69 2 0.113 faster 1 3.464083e+05 3.464112e+05 2.819
24 irregular 8 100 800 52 1 0.155 faster 0 3.464120e+05 3.464136e+05 1.673
24 regular 9 1 801 51 1 0.226 slower 1 3.465887e+05 3.465903e+05 1.562
24 regular 9 2 802 51 1 0.113 faster 0 3.465915e+05 3.465936e+05 2.084
24 regular 9 3 803 70 1 0.150 slower 0 3.465944e+05 3.465964e+05 2.004
24 regular 9 4 804 49 1 0.257 slower 1 3.465973e+05 3.465989e+05 1.656
24 regular 9 5 805 50 1 0.580 slower 1 3.466001e+05 3.466016e+05 1.489
24 regular 9 6 806 50 1 0.368 slower 1 3.466026e+05 3.466043e+05 1.706
24 regular 9 7 807 69 1 0.401 slower 0 3.466054e+05 3.466070e+05 1.647
24 regular 9 8 808 50 1 0.425 slower 1 3.466081e+05 3.466097e+05 1.597
24 regular 9 9 809 50 1 0.340 slower 1 3.466106e+05 3.466122e+05 1.559
24 regular 9 10 810 51 1 0.532 slower 1 3.466134e+05 3.466149e+05 1.540
24 regular 9 11 811 69 1 0.420 slower 0 3.466160e+05 3.466176e+05 1.625
24 regular 9 12 812 70 1 0.599 slower 0 3.466188e+05 3.466206e+05 1.752
24 regular 9 13 813 49 1 0.499 slower 1 3.466217e+05 3.466243e+05 2.582
24 regular 9 14 814 50 1 0.595 slower 1 3.466255e+05 3.466280e+05 2.453
24 regular 9 15 815 50 1 0.234 slower 1 3.466298e+05 3.466324e+05 2.554
24 regular 9 16 816 69 1 0.166 faster 1 3.466343e+05 3.466373e+05 2.962
24 regular 9 17 817 51 1 0.460 slower 1 3.466390e+05 3.466410e+05 2.040
24 regular 9 18 818 68 1 0.253 faster 1 3.466425e+05 3.466445e+05 2.032
24 regular 9 19 819 68 1 0.387 faster 1 3.466455e+05 3.466476e+05 2.096
24 regular 9 20 820 67 1 0.182 faster 1 3.466484e+05 3.466507e+05 2.255
24 regular 9 21 821 53 1 0.226 slower 1 3.466516e+05 3.466533e+05 1.790
24 regular 9 22 822 54 1 0.266 slower 1 3.466542e+05 3.466560e+05 1.753
24 regular 9 23 823 66 1 0.338 faster 1 3.466570e+05 3.466588e+05 1.789
24 regular 9 24 824 55 1 0.430 slower 1 3.466598e+05 3.466616e+05 1.715
24 regular 9 25 825 55 1 0.308 faster 0 3.466625e+05 3.466650e+05 2.463
24 regular 9 26 826 54 1 0.271 slower 1 3.466659e+05 3.466681e+05 2.203
24 regular 9 27 827 65 1 0.226 slower 0 3.466689e+05 3.466707e+05 1.720
24 regular 9 28 828 66 1 0.102 slower 0 3.466714e+05 3.466735e+05 2.140
24 regular 9 29 829 67 1 0.275 faster 1 3.466745e+05 3.466763e+05 1.805
24 regular 9 30 830 53 1 0.389 slower 1 3.466773e+05 3.466791e+05 1.782
24 regular 9 31 831 66 1 0.434 slower 0 3.466801e+05 3.466820e+05 1.897
24 regular 9 32 832 53 1 0.588 faster 0 3.466832e+05 3.466855e+05 2.217
24 regular 9 33 833 52 1 0.265 faster 0 3.466864e+05 3.466881e+05 1.708
24 regular 9 34 834 69 1 0.571 faster 1 3.466893e+05 3.466911e+05 1.802
24 regular 9 35 835 69 1 0.141 faster 1 3.466919e+05 3.466935e+05 1.644
24 regular 9 36 836 68 1 0.396 faster 1 3.466946e+05 3.466964e+05 1.890
24 regular 9 37 837 68 1 0.214 faster 1 3.466973e+05 3.466988e+05 1.487
24 regular 9 38 838 53 1 0.585 slower 1 3.467000e+05 3.467016e+05 1.620
24 regular 9 39 839 67 1 0.396 faster 1 3.467027e+05 3.467043e+05 1.664
24 regular 9 40 840 54 1 0.358 slower 1 3.467053e+05 3.467072e+05 1.930
24 regular 9 41 841 66 1 0.591 faster 1 3.467085e+05 3.467102e+05 1.734
24 regular 9 42 842 55 1 0.248 slower 1 3.467111e+05 3.467132e+05 2.125
24 regular 9 43 843 65 1 0.216 slower 0 3.467141e+05 3.467159e+05 1.783
24 regular 9 44 844 66 1 0.247 slower 0 3.467168e+05 3.467185e+05 1.759
24 regular 9 45 845 53 1 0.156 slower 1 3.467193e+05 3.467213e+05 1.970
24 regular 9 46 846 66 1 0.366 faster 1 3.467223e+05 3.467242e+05 1.938
24 regular 9 47 847 66 1 0.165 faster 1 3.467250e+05 3.467267e+05 1.717
24 regular 9 48 848 55 1 0.596 faster 0 3.467280e+05 3.467297e+05 1.730
24 regular 9 49 849 66 1 0.428 faster 1 3.467308e+05 3.467330e+05 2.230
24 regular 9 50 850 54 1 0.538 slower 1 3.467342e+05 3.467359e+05 1.700
24 regular 9 51 851 65 1 0.195 faster 1 3.467367e+05 3.467385e+05 1.799
24 regular 9 52 852 55 1 0.401 slower 1 3.467395e+05 3.467416e+05 2.063
24 regular 9 53 853 56 1 0.106 slower 1 3.467424e+05 3.467447e+05 2.336
24 regular 9 54 854 64 1 0.518 faster 1 3.467458e+05 3.467478e+05 1.929
24 regular 9 55 855 57 1 0.498 faster 0 3.467489e+05 3.467510e+05 2.083
24 regular 9 56 856 64 1 0.123 faster 1 3.467518e+05 3.467534e+05 1.673
24 regular 9 57 857 56 1 0.414 faster 0 3.467545e+05 3.467566e+05 2.117
24 regular 9 58 858 65 1 0.400 slower 0 3.467576e+05 3.467597e+05 2.063
24 regular 9 59 859 66 1 0.402 slower 0 3.467607e+05 3.467627e+05 1.977
24 regular 9 60 860 53 1 0.257 faster 0 3.467636e+05 3.467660e+05 2.370
24 regular 9 61 861 52 1 0.133 slower 1 3.467667e+05 3.467690e+05 2.238
24 regular 9 62 862 67 1 0.586 slower 0 3.467702e+05 3.467721e+05 1.889
24 regular 9 63 863 68 1 0.279 faster 1 3.467730e+05 3.467749e+05 1.847
24 regular 9 64 864 52 1 0.504 faster 0 3.467760e+05 3.467777e+05 1.667
24 regular 9 65 865 51 1 0.568 faster 0 3.467789e+05 3.467809e+05 2.035
24 regular 9 66 866 70 1 0.284 slower 0 3.467828e+05 3.467850e+05 2.209
24 regular 9 67 867 71 1 0.208 faster 1 3.467858e+05 3.467876e+05 1.813
24 regular 9 68 868 70 1 0.488 faster 1 3.467888e+05 3.467905e+05 1.718
24 regular 9 69 869 50 1 0.260 slower 1 3.467914e+05 3.467935e+05 2.129
24 regular 9 70 870 51 1 0.598 faster 0 3.467948e+05 3.467968e+05 2.071
24 regular 9 71 871 70 1 0.448 faster 1 3.467979e+05 3.467998e+05 1.898
24 regular 9 72 872 50 1 0.267 faster 0 3.468007e+05 3.468024e+05 1.652
24 regular 9 73 873 71 1 0.536 faster 1 3.468056e+05 3.468078e+05 2.183
24 regular 9 74 874 70 1 0.308 faster 1 3.468092e+05 3.468112e+05 1.953
24 regular 9 75 875 50 1 0.489 slower 1 3.468123e+05 3.468140e+05 1.638
24 regular 9 76 876 69 1 0.462 slower 0 3.468151e+05 3.468168e+05 1.714
24 regular 9 77 877 70 1 0.365 slower 0 3.468178e+05 3.468197e+05 1.925
24 regular 9 78 878 49 1 0.242 slower 1 3.468206e+05 3.468224e+05 1.813
24 regular 9 79 879 71 1 0.164 slower 0 3.468232e+05 3.468251e+05 1.863
24 regular 9 80 880 48 1 0.560 slower 1 3.468281e+05 3.468297e+05 1.562
24 regular 9 81 881 71 1 0.309 faster 1 3.468306e+05 3.468324e+05 1.804
24 regular 9 82 882 71 1 0.505 faster 1 3.468336e+05 3.468353e+05 1.691
24 regular 9 83 883 70 1 0.558 faster 1 3.468365e+05 3.468381e+05 1.621
24 regular 9 84 884 70 1 0.263 faster 1 3.468397e+05 3.468415e+05 1.800
24 regular 9 85 885 69 1 0.156 faster 1 3.468423e+05 3.468443e+05 1.964
24 regular 9 86 886 69 1 0.463 faster 1 3.468454e+05 3.468474e+05 2.021
24 regular 9 87 887 68 1 0.143 faster 1 3.468482e+05 3.468501e+05 1.886
24 regular 9 88 888 52 1 0.391 slower 1 3.468511e+05 3.468536e+05 2.448
24 regular 9 89 889 53 1 0.473 slower 1 3.468547e+05 3.468565e+05 1.782
24 regular 9 90 890 53 1 0.468 slower 1 3.468576e+05 3.468592e+05 1.602
24 regular 9 91 891 54 1 0.554 slower 1 3.468604e+05 3.468621e+05 1.717
24 regular 9 92 892 66 1 0.165 faster 1 3.468629e+05 3.468646e+05 1.687
24 regular 9 93 893 65 1 0.231 faster 1 3.468654e+05 3.468670e+05 1.555
24 regular 9 94 894 55 1 0.317 none 2 3.468679e+05 3.468719e+05 4.000
24 regular 9 95 895 55 1 0.523 slower 1 3.468751e+05 3.468768e+05 1.667
24 regular 9 96 896 56 1 0.261 slower 1 3.468782e+05 3.468800e+05 1.825
24 regular 9 97 897 56 1 0.493 faster 0 3.468817e+05 3.468837e+05 2.005
24 regular 9 98 898 65 1 0.571 slower 0 3.468849e+05 3.468869e+05 2.024
24 regular 9 99 899 54 1 0.505 slower 1 3.468881e+05 3.468898e+05 1.771
24 regular 9 100 900 55 1 0.528 slower 1 3.468910e+05 3.468926e+05 1.629
24 irregular 10 1 901 55 2 0.478 slower 1 3.471261e+05 3.471294e+05 3.271
24 irregular 10 2 902 56 1 0.337 slower 1 3.471304e+05 3.471328e+05 2.347
24 irregular 10 3 903 64 2.500000e+00 0.457 faster 1 3.471339e+05 3.471370e+05 3.135
24 irregular 10 4 904 57 3 0.477 faster 0 3.471382e+05 3.471417e+05 3.583
24 irregular 10 5 905 64 3 0.405 slower 0 3.471428e+05 3.471467e+05 3.948
24 irregular 10 6 906 55 2 0.164 faster 0 3.471476e+05 3.471507e+05 3.135
24 irregular 10 7 907 54 1 0.280 slower 1 3.471517e+05 3.471535e+05 1.829
24 irregular 10 8 908 54 2 0.252 faster 0 3.471544e+05 3.471584e+05 4.025
24 irregular 10 9 909 67 1 0.541 faster 1 3.471596e+05 3.471612e+05 1.567
24 irregular 10 10 910 54 3 0.237 slower 1 3.471621e+05 3.471660e+05 3.897
24 irregular 10 11 911 54 3 0.198 slower 1 3.471669e+05 3.471716e+05 4.760
24 irregular 10 12 912 65 2 0.385 faster 1 3.471727e+05 3.471753e+05 2.566
24 irregular 10 13 913 65 2.500000e+00 0.558 faster 1 3.471765e+05 3.471799e+05 3.423
24 irregular 10 14 914 64 2 0.473 faster 1 3.471811e+05 3.471841e+05 3.071
24 irregular 10 15 915 64 2.500000e+00 0.316 faster 1 3.471851e+05 3.471885e+05 3.428
24 irregular 10 16 916 63 1.500000e+00 0.245 faster 1 3.471895e+05 3.471918e+05 2.301
24 irregular 10 17 917 57 1 0.323 faster 0 3.471927e+05 3.471946e+05 1.809
24 irregular 10 18 918 64 1.500000e+00 0.403 faster 1 3.471956e+05 3.471981e+05 2.457
24 irregular 10 19 919 63 3 0.276 faster 1 3.471990e+05 3.472030e+05 3.953
24 irregular 10 20 920 63 2.500000e+00 0.438 slower 0 3.472041e+05 3.472074e+05 3.327
24 irregular 10 21 921 64 1 0.201 faster 1 3.472083e+05 3.472103e+05 1.967
24 irregular 10 22 922 57 2 0.152 slower 1 3.472141e+05 3.472171e+05 2.932
24 irregular 10 23 923 57 2 0.187 slower 1 3.472179e+05 3.472207e+05 2.822
24 irregular 10 24 924 58 2.500000e+00 0.422 slower 1 3.472222e+05 3.472256e+05 3.417
24 irregular 10 25 925 62 3 0.545 slower 0 3.472268e+05 3.472306e+05 3.757
24 irregular 10 26 926 63 3 0.322 faster 1 3.472315e+05 3.472354e+05 3.892
24 irregular 10 27 927 58 1.500000e+00 0.579 slower 1 3.472367e+05 3.472391e+05 2.456
24 irregular 10 28 928 58 2 0.327 slower 1 3.472401e+05 3.472437e+05 3.543
24 irregular 10 29 929 59 1.500000e+00 0.411 faster 0 3.472447e+05 3.472475e+05 2.729
24 irregular 10 30 930 62 1 0.291 faster 1 3.472484e+05 3.472508e+05 2.382
24 irregular 10 31 931 62 2 0.389 faster 1 3.472519e+05 3.472549e+05 3.030
24 irregular 10 32 932 59 2.500000e+00 0.300 faster 0 3.472559e+05 3.472591e+05 3.243
24 irregular 10 33 933 58 2.500000e+00 0.170 faster 0 3.472599e+05 3.472633e+05 3.414
24 irregular 10 34 934 57 2.500000e+00 0.457 faster 0 3.472644e+05 3.472678e+05 3.403
24 irregular 10 35 935 64 1.500000e+00 0.514 faster 1 3.472690e+05 3.472714e+05 2.356
24 irregular 10 36 936 64 2 0.498 slower 0 3.472725e+05 3.472755e+05 2.979
24 irregular 10 37 937 55 1 0.218 slower 1 3.472764e+05 3.472783e+05 1.908
24 irregular 10 38 938 56 2.500000e+00 0.424 slower 1 3.472794e+05 3.472832e+05 3.822
24 irregular 10 39 939 56 1 0.114 slower 1 3.472840e+05 3.472859e+05 1.839
24 irregular 10 40 940 57 1.500000e+00 0.346 slower 1 3.472869e+05 3.472895e+05 2.595
24 irregular 10 41 941 57 3 0.180 slower 1 3.472903e+05 3.472942e+05 3.938
24 irregular 10 42 942 62 3 0.331 slower 0 3.472952e+05 3.472994e+05 4.139
24 irregular 10 43 943 63 2.500000e+00 0.408 slower 0 3.473004e+05 3.473037e+05 3.260
24 irregular 10 44 944 64 2.500000e+00 0.220 faster 1 3.473045e+05 3.473079e+05 3.337
24 irregular 10 45 945 64 1.500000e+00 0.171 faster 1 3.473087e+05 3.473115e+05 2.775
24 irregular 10 46 946 63 3 0.120 faster 1 3.473123e+05 3.473165e+05 4.173
24 irregular 10 47 947 63 1.500000e+00 0.516 faster 1 3.473197e+05 3.473223e+05 2.603
24 irregular 10 48 948 58 3 0.239 faster 0 3.473232e+05 3.473271e+05 3.828
24 irregular 10 49 949 63 1 0.176 faster 1 3.473279e+05 3.473302e+05 2.322
24 irregular 10 50 950 57 1.500000e+00 0.350 slower 1 3.473312e+05 3.473333e+05 2.078
24 irregular 10 51 951 62 3 0.392 slower 0 3.473344e+05 3.473385e+05 4.123
24 irregular 10 52 952 57 1 0.143 faster 0 3.473407e+05 3.473426e+05 1.880
24 irregular 10 53 953 56 3 0.588 slower 1 3.473438e+05 3.473477e+05 3.908
24 irregular 10 54 954 56 1.500000e+00 0.406 faster 0 3.473518e+05 3.473544e+05 2.593
24 irregular 10 55 955 65 2 0.571 faster 1 3.473564e+05 3.473596e+05 3.173
24 irregular 10 56 956 64 3 0.226 slower 0 3.473605e+05 3.473646e+05 4.086
24 irregular 10 57 957 55 3 0.430 slower 1 3.473656e+05 3.473694e+05 3.798
24 irregular 10 58 958 55 2.500000e+00 0.305 slower 1 3.473704e+05 3.473736e+05 3.186
24 irregular 10 59 959 56 2 0.253 faster 0 3.473752e+05 3.473786e+05 3.480
24 irregular 10 60 960 65 1 0.305 slower 0 3.473796e+05 3.473814e+05 1.832
24 irregular 10 61 961 66 2 0.327 slower 0 3.473824e+05 3.473851e+05 2.703
24 irregular 10 62 962 67 1 0.354 slower 0 3.473862e+05 3.473881e+05 1.988
24 irregular 10 63 963 68 2.500000e+00 0.344 slower 0 3.473892e+05 3.473926e+05 3.424
24 irregular 10 64 964 69 1.500000e+00 0.147 slower 0 3.473940e+05 3.473964e+05 2.339
24 irregular 10 65 965 50 1.500000e+00 0.416 slower 1 3.473974e+05 3.473997e+05 2.280
24 irregular 10 66 966 50 2.500000e+00 0.265 slower 1 3.474006e+05 3.474040e+05 3.341
24 irregular 10 67 967 69 1 0.177 faster 1 3.474049e+05 3.474066e+05 1.764
24 irregular 10 68 968 69 1.500000e+00 0.196 faster 1 3.474075e+05 3.474097e+05 2.236
24 irregular 10 69 969 52 2 0.488 faster 0 3.474109e+05 3.474135e+05 2.656
24 irregular 10 70 970 51 1 0.367 slower 1 3.474146e+05 3.474165e+05 1.948
24 irregular 10 71 971 51 2.500000e+00 0.427 slower 1 3.474176e+05 3.474213e+05 3.713
24 irregular 10 72 972 68 2 0.388 faster 1 3.474235e+05 3.474262e+05 2.698
24 irregular 10 73 973 68 2 0.335 faster 1 3.474280e+05 3.474315e+05 3.441
24 irregular 10 74 974 53 3 0.427 slower 1 3.474360e+05 3.474401e+05 4.121
24 irregular 10 75 975 67 1.500000e+00 0.413 slower 0 3.474430e+05 3.474454e+05 2.395
24 irregular 10 76 976 68 2.500000e+00 0.166 slower 0 3.474463e+05 3.474497e+05 3.402
24 irregular 10 77 977 51 1.500000e+00 0.320 slower 1 3.474506e+05 3.474532e+05 2.600
24 irregular 10 78 978 52 1.500000e+00 0.588 slower 1 3.474545e+05 3.474568e+05 2.379
24 irregular 10 79 979 52 1.500000e+00 0.249 slower 1 3.474577e+05 3.474602e+05 2.494
24 irregular 10 80 980 53 1 0.449 slower 1 3.474619e+05 3.474637e+05 1.789
24 irregular 10 81 981 67 1.500000e+00 0.497 faster 1 3.474649e+05 3.474669e+05 2.038
24 irregular 10 82 982 54 2 0.231 slower 1 3.474687e+05 3.474715e+05 2.774
24 irregular 10 83 983 54 1.500000e+00 0.302 faster 0 3.474761e+05 3.474786e+05 2.501
24 irregular 10 84 984 53 3 0.337 slower 1 3.474796e+05 3.474834e+05 3.809
24 irregular 10 85 985 66 1 0.118 faster 1 3.474842e+05 3.474863e+05 2.122
24 irregular 10 86 986 54 3 0.333 slower 1 3.474873e+05 3.474912e+05 3.871
24 irregular 10 87 987 55 2.500000e+00 0.303 slower 1 3.474932e+05 3.474966e+05 3.400
24 irregular 10 88 988 65 2 0.478 faster 1 3.474977e+05 3.475006e+05 2.829
24 irregular 10 89 989 64 2.500000e+00 0.458 faster 1 3.475017e+05 3.475048e+05 3.162
24 irregular 10 90 990 64 1 0.384 faster 1 3.475059e+05 3.475076e+05 1.751
24 irregular 10 91 991 63 3 0.164 faster 1 3.475085e+05 3.475125e+05 4.007
24 irregular 10 92 992 57 1 0.460 slower 1 3.475136e+05 3.475153e+05 1.740
24 irregular 10 93 993 62 3 0.329 slower 0 3.475163e+05 3.475201e+05 3.741
24 irregular 10 94 994 57 2.500000e+00 0.278 slower 1 3.475210e+05 3.475243e+05 3.237
24 irregular 10 95 995 57 1 0.338 faster 0 3.475253e+05 3.475271e+05 1.784
24 irregular 10 96 996 64 2.500000e+00 0.329 faster 1 3.475280e+05 3.475315e+05 3.469
24 irregular 10 97 997 57 2 0.308 faster 0 3.475325e+05 3.475353e+05 2.786
24 irregular 10 98 998 64 1.500000e+00 0.490 faster 1 3.475364e+05 3.475387e+05 2.239
24 irregular 10 99 999 64 1 0.585 faster 1 3.475399e+05 3.475420e+05 2.045
24 irregular 10 100 1000 63 2 0.122 faster 1 3.475428e+05 3.475454e+05 2.655
24 regular 5 1 401 51 3 0.580 slower 1 2.069304e+06 2.069307e+06 3.891
24 regular 5 2 402 51 3 0.475 faster 0 2.069309e+06 2.069312e+06 3.517
24 regular 5 3 403 71 3 0.504 faster 1 2.069313e+06 2.069317e+06 3.599
24 regular 5 4 404 51 3 0.275 faster 0 2.069318e+06 2.069322e+06 3.866
24 regular 5 5 405 71 3 0.323 faster 1 2.069323e+06 2.069326e+06 3.594
24 regular 5 6 406 71 3 0.271 faster 1 2.069327e+06 2.069331e+06 3.586
24 regular 5 7 407 69 3 0.426 faster 1 2.069332e+06 2.069335e+06 3.674
24 regular 5 8 408 51 3 0.522 faster 0 2.069337e+06 2.069340e+06 3.663
24 regular 5 9 409 70 3 0.377 faster 1 2.069341e+06 2.069345e+06 3.650
24 regular 5 10 410 69 3 0.274 slower 0 2.069346e+06 2.069350e+06 3.946
24 regular 5 11 411 70 3 0.251 faster 1 2.069351e+06 2.069354e+06 3.692
24 regular 5 12 412 50 3 0.400 slower 1 2.069355e+06 2.069359e+06 3.782
24 regular 5 13 413 69 3 0.339 faster 1 2.069361e+06 2.069364e+06 3.690
24 regular 5 14 414 51 3 0.511 slower 1 2.069366e+06 2.069369e+06 3.559
24 regular 5 15 415 52 3 0.581 slower 1 2.069370e+06 2.069374e+06 3.608
24 regular 5 16 416 52 3 0.524 slower 1 2.069375e+06 2.069379e+06 3.794
24 regular 5 17 417 53 3 0.168 slower 1 2.069380e+06 2.069383e+06 3.602
24 regular 5 18 418 67 3 0.146 slower 0 2.069384e+06 2.069388e+06 3.657
24 regular 5 19 419 52 3 0.434 slower 1 2.069389e+06 2.069392e+06 3.529
24 regular 5 20 420 53 3 0.267 slower 1 2.069394e+06 2.069397e+06 3.600
24 regular 5 21 421 67 3 0.217 slower 0 2.069398e+06 2.069402e+06 3.875
24 regular 5 22 422 52 3 0.198 faster 0 2.069403e+06 2.069407e+06 3.757
24 regular 5 23 423 69 3 0.575 slower 0 2.069408e+06 2.069412e+06 3.728
24 regular 5 24 424 70 3 0.207 faster 1 2.069412e+06 2.069416e+06 3.579
24 regular 5 25 425 69 3 0.106 faster 1 2.069417e+06 2.069420e+06 3.681
24 regular 5 26 426 51 3 0.146 faster 0 2.069421e+06 2.069425e+06 3.752
24 regular 5 27 427 70 3 0.584 faster 1 2.069426e+06 2.069430e+06 3.707
24 regular 5 28 428 51 3 0.316 slower 1 2.069431e+06 2.069435e+06 3.704
24 regular 5 29 429 51 3 0.391 slower 1 2.069437e+06 2.069440e+06 3.819
24 regular 5 30 430 52 3 0.119 slower 1 2.069442e+06 2.069446e+06 4.147
24 regular 5 31 431 68 3 0.596 faster 1 2.069448e+06 2.069451e+06 3.628
24 regular 5 32 432 53 3 0.441 slower 1 2.069452e+06 2.069456e+06 3.674
24 regular 5 33 433 67 3 0.161 faster 1 2.069457e+06 2.069461e+06 3.830
24 regular 5 34 434 66 3 0.515 slower 0 2.069462e+06 2.069466e+06 3.867
24 regular 5 35 435 67 3 0.300 faster 1 2.069467e+06 2.069471e+06 3.947
24 regular 5 36 436 67 3 0.595 slower 0 2.069472e+06 2.069476e+06 4.210
24 regular 5 37 437 68 3 0.566 faster 1 2.069479e+06 2.069483e+06 3.941
24 regular 5 38 438 53 3 0.344 slower 1 2.069484e+06 2.069488e+06 3.781
24 regular 5 39 439 67 3 0.585 faster 1 2.069489e+06 2.069493e+06 4.358
24 regular 5 40 440 66 3 0.267 slower 0 2.069495e+06 2.069498e+06 3.634
24 regular 5 41 441 53 3 0.241 slower 1 2.069499e+06 2.069503e+06 3.842
24 regular 5 42 442 67 3 0.505 faster 1 2.069504e+06 2.069508e+06 3.664
24 regular 5 43 443 54 3 0.219 slower 1 2.069509e+06 2.069513e+06 3.739
24 regular 5 44 444 54 3 0.297 faster 0 2.069513e+06 2.069517e+06 3.656
24 regular 5 45 445 67 3 0.139 faster 1 2.069518e+06 2.069522e+06 3.682
24 regular 5 46 446 54 3 0.186 slower 1 2.069522e+06 2.069527e+06 4.163
24 regular 5 47 447 54 3 0.118 slower 1 2.069527e+06 2.069532e+06 4.176
24 regular 5 48 448 55 3 0.326 slower 1 2.069532e+06 2.069536e+06 3.812
24 regular 5 49 449 65 3 0.336 slower 0 2.069538e+06 2.069542e+06 3.738
24 regular 5 50 450 66 3 0.124 faster 1 2.069543e+06 2.069547e+06 3.949
24 regular 5 51 451 65 3 0.161 slower 0 2.069556e+06 2.069560e+06 3.954
24 regular 5 52 452 54 3 0.287 slower 1 2.069561e+06 2.069564e+06 3.795
24 regular 5 53 453 66 3 0.584 slower 0 2.069575e+06 2.069579e+06 4.023
24 regular 5 54 454 53 3 0.401 slower 1 2.069582e+06 2.069586e+06 3.970
24 regular 5 55 455 54 3 0.484 faster 0 2.069587e+06 2.069590e+06 3.646
24 regular 5 56 456 67 3 0.161 faster 1 2.069591e+06 2.069595e+06 3.683
24 regular 5 57 457 67 3 0.131 slower 0 2.069596e+06 2.069600e+06 3.983
24 regular 5 58 458 68 3 0.580 faster 1 2.069602e+06 2.069606e+06 3.615
24 regular 5 59 459 67 3 0.381 faster 1 2.069607e+06 2.069610e+06 3.616
24 regular 5 60 460 67 3 0.311 faster 1 2.069612e+06 2.069616e+06 3.752
24 regular 5 61 461 66 3 0.146 slower 0 2.069616e+06 2.069620e+06 3.807
24 regular 5 62 462 53 3 0.525 slower 1 2.069621e+06 2.069625e+06 3.701
24 regular 5 63 463 53 3 0.239 slower 1 2.069626e+06 2.069630e+06 3.634
24 regular 5 64 464 54 3 0.576 slower 1 2.069631e+06 2.069634e+06 3.534
24 regular 5 65 465 66 3 0.117 slower 0 2.069635e+06 2.069639e+06 3.594
24 regular 5 66 466 53 3 0.533 slower 1 2.069640e+06 2.069643e+06 3.535
24 regular 5 67 467 66 3 0.517 slower 0 2.069645e+06 2.069648e+06 3.477
24 regular 5 68 468 67 3 0.263 slower 0 2.069649e+06 2.069652e+06 3.513
24 regular 5 69 469 52 3 0.209 slower 1 2.069653e+06 2.069657e+06 3.538
24 regular 5 70 470 52 3 0.526 slower 1 2.069659e+06 2.069662e+06 3.787
24 regular 5 71 471 67 3 0.318 faster 1 2.069663e+06 2.069667e+06 3.708
24 regular 5 72 472 67 3 0.217 faster 1 2.069668e+06 2.069672e+06 3.671
24 regular 5 73 473 66 3 0.389 faster 1 2.069673e+06 2.069677e+06 3.763
24 regular 5 74 474 66 3 0.292 slower 0 2.069678e+06 2.069682e+06 4.278
24 regular 5 75 475 53 3 0.600 slower 1 2.069684e+06 2.069688e+06 3.694
24 regular 5 76 476 54 3 0.227 faster 0 2.069688e+06 2.069693e+06 4.364
24 regular 5 77 477 67 3 0.439 faster 1 2.069694e+06 2.069698e+06 4.072
24 regular 5 78 478 67 3 0.358 faster 1 2.069699e+06 2.069703e+06 3.771
24 regular 5 79 479 66 3 0.573 faster 1 2.069704e+06 2.069708e+06 4.410
24 regular 5 80 480 66 3 0.202 slower 0 2.069709e+06 2.069713e+06 4.060
24 regular 5 81 481 67 3 0.450 faster 1 2.069714e+06 2.069718e+06 3.885
24 regular 5 82 482 54 3 0.326 slower 1 2.069720e+06 2.069724e+06 4.017
24 regular 5 83 483 54 3 0.368 slower 1 2.069725e+06 2.069729e+06 3.816
24 regular 5 84 484 55 3 0.258 faster 0 2.069730e+06 2.069733e+06 3.677
24 regular 5 85 485 66 3 0.204 slower 0 2.069734e+06 2.069738e+06 3.803
24 regular 5 86 486 53 3 0.209 faster 0 2.069739e+06 2.069742e+06 3.550
24 regular 5 87 487 52 3 0.471 slower 1 2.069744e+06 2.069747e+06 3.817
24 regular 5 88 488 52 3 0.150 faster 0 2.069748e+06 2.069752e+06 3.906
24 regular 5 89 489 51 3 0.262 faster 0 2.069753e+06 2.069757e+06 3.892
24 regular 5 90 490 50 3 0.321 faster 0 2.069758e+06 2.069762e+06 3.860
24 regular 5 91 491 71 3 0.271 faster 1 2.069763e+06 2.069767e+06 3.842
24 regular 5 92 492 50 3 0.442 faster 0 2.069768e+06 2.069772e+06 3.772
24 regular 5 93 493 49 3 0.413 slower 1 2.069773e+06 2.069777e+06 3.799
24 regular 5 94 494 49 3 0.474 faster 0 2.069778e+06 2.069782e+06 4.138
24 regular 5 95 495 72 3 0.553 faster 1 2.069783e+06 2.069787e+06 3.755
24 regular 5 96 496 49 3 0.586 slower 1 2.069788e+06 2.069792e+06 3.939
24 regular 5 97 497 49 3 0.373 slower 1 2.069793e+06 2.069797e+06 3.853
24 regular 5 98 498 50 3 0.384 slower 1 2.069799e+06 2.069803e+06 3.938
24 regular 5 99 499 70 3 0.139 faster 1 2.069804e+06 2.069808e+06 3.736
24 regular 5 100 500 51 3 0.373 slower 1 2.069809e+06 2.069813e+06 3.835
