subNo condition blockNo trialNo trialID currentFrequency cueTargetInterval randomPreCueInterval response responseAccuracy startTime responseTime RT
11 irregular 1 1 1 55 1 0.405 slower 1 2.331306e+06 2.331308e+06 2.003
11 irregular 1 2 2 65 2 0.181 faster 1 2.331309e+06 2.331311e+06 2.750
11 irregular 1 3 3 63 2.500000e+00 0.578 faster 1 2.331313e+06 2.331317e+06 4.219
11 irregular 1 4 4 57 2 0.355 faster 0 2.331318e+06 2.331321e+06 3.056
11 irregular 1 5 5 55 2 0.227 slower 1 2.331322e+06 2.331325e+06 3.284
11 irregular 1 6 6 57 2 0.221 faster 0 2.331326e+06 2.331329e+06 3.243
11 irregular 1 7 7 55 2.500000e+00 0.390 none 2 2.331331e+06 2.331336e+06 5.500
11 irregular 1 8 8 55 2 0.249 slower 1 2.331337e+06 2.331340e+06 2.698
11 irregular 1 9 9 55 3 0.460 slower 1 2.331341e+06 2.331345e+06 3.799
11 irregular 1 10 10 57 1 0.474 slower 1 2.331346e+06 2.331348e+06 1.949
11 irregular 1 11 11 63 1 0.272 slower 0 2.331349e+06 2.331351e+06 1.917
11 irregular 1 12 12 56 1.500000e+00 0.478 slower 1 2.331352e+06 2.331354e+06 2.409
11 irregular 1 13 13 63 1.500000e+00 0.408 faster 1 2.331355e+06 2.331358e+06 2.693
11 irregular 1 14 14 63 2 0.582 faster 1 2.331359e+06 2.331362e+06 3.057
11 irregular 1 15 15 62 2.500000e+00 0.436 faster 1 2.331363e+06 2.331367e+06 3.270
11 irregular 1 16 16 62 1.500000e+00 0.449 faster 1 2.331368e+06 2.331371e+06 3.569
11 irregular 1 17 17 61 1.500000e+00 0.486 faster 1 2.331372e+06 2.331375e+06 2.532
11 irregular 1 18 18 59 1 0.434 slower 1 2.331376e+06 2.331378e+06 1.811
11 irregular 1 19 19 61 2 0.158 slower 0 2.331379e+06 2.331382e+06 3.387
11 irregular 1 20 20 62 2 0.232 slower 0 2.331383e+06 2.331386e+06 3.002
11 irregular 1 21 21 63 1 0.337 slower 0 2.331387e+06 2.331389e+06 2.179
11 irregular 1 22 22 56 3 0.264 faster 0 2.331390e+06 2.331394e+06 4.177
11 irregular 1 23 23 65 2.500000e+00 0.365 faster 1 2.331395e+06 2.331399e+06 3.235
11 irregular 1 24 24 65 2 0.130 faster 1 2.331399e+06 2.331402e+06 2.678
11 irregular 1 25 25 64 3 0.383 faster 1 2.331403e+06 2.331407e+06 3.802
11 irregular 1 26 26 56 2 0.542 slower 1 2.331408e+06 2.331411e+06 3.214
11 irregular 1 27 27 63 1.500000e+00 0.384 slower 0 2.331412e+06 2.331416e+06 3.213
11 irregular 1 28 28 56 1.500000e+00 0.241 slower 1 2.331416e+06 2.331419e+06 2.920
11 irregular 1 29 29 64 3 0.132 slower 0 2.331420e+06 2.331425e+06 5.168
11 irregular 1 30 30 65 3 0.368 faster 1 2.331426e+06 2.331430e+06 3.832
11 irregular 1 31 31 64 2.500000e+00 0.335 slower 0 2.331431e+06 2.331436e+06 5.123
11 irregular 1 32 32 55 2.500000e+00 0.542 slower 1 2.331437e+06 2.331441e+06 3.426
11 irregular 1 33 33 55 2.500000e+00 0.245 slower 1 2.331442e+06 2.331446e+06 4.405
11 irregular 1 34 34 56 1 0.548 slower 1 2.331447e+06 2.331449e+06 1.946
11 irregular 1 35 35 56 2.500000e+00 0.265 faster 0 2.331450e+06 2.331454e+06 3.501
11 irregular 1 36 36 65 2.500000e+00 0.377 faster 1 2.331455e+06 2.331458e+06 3.416
11 irregular 1 37 37 64 2.500000e+00 0.575 faster 1 2.331459e+06 2.331464e+06 4.190
11 irregular 1 38 38 56 1.500000e+00 0.296 slower 1 2.331465e+06 2.331468e+06 3.298
11 irregular 1 39 39 63 1 0.557 faster 1 2.331469e+06 2.331471e+06 2.148
11 irregular 1 40 40 57 2 0.359 slower 1 2.331472e+06 2.331475e+06 3.047
11 irregular 1 41 41 62 2 0.584 slower 0 2.331477e+06 2.331480e+06 3.653
11 irregular 1 42 42 57 1.500000e+00 0.203 slower 1 2.331481e+06 2.331484e+06 2.449
11 irregular 1 43 43 57 2.500000e+00 0.561 slower 1 2.331485e+06 2.331488e+06 3.421
11 irregular 1 44 44 62 3 0.309 slower 0 2.331489e+06 2.331493e+06 3.956
11 irregular 1 45 45 63 1 0.592 faster 1 2.331494e+06 2.331497e+06 2.282
11 irregular 1 46 46 63 3 0.152 faster 1 2.331497e+06 2.331502e+06 4.612
11 irregular 1 47 47 62 2 0.175 faster 1 2.331503e+06 2.331506e+06 3.140
11 irregular 1 48 48 58 1 0.136 slower 1 2.331507e+06 2.331510e+06 2.901
11 irregular 1 49 49 61 2.500000e+00 0.257 slower 0 2.331511e+06 2.331515e+06 4.467
11 irregular 1 50 50 58 1.500000e+00 0.554 slower 1 2.331516e+06 2.331520e+06 3.970
11 irregular 1 51 51 62 2.500000e+00 0.516 slower 0 2.331522e+06 2.331526e+06 4.362
11 irregular 1 52 52 63 1.500000e+00 0.546 slower 0 2.331527e+06 2.331530e+06 2.399
11 irregular 1 53 53 56 2 0.367 slower 1 2.331531e+06 2.331533e+06 2.864
11 irregular 1 54 54 57 2 0.440 slower 1 2.331535e+06 2.331538e+06 3.392
11 irregular 1 55 55 57 1 0.203 slower 1 2.331539e+06 2.331542e+06 3.180
11 irregular 1 56 56 58 1 0.212 slower 1 2.331543e+06 2.331545e+06 2.033
11 irregular 1 57 57 58 2 0.187 faster 0 2.331546e+06 2.331549e+06 3.754
11 irregular 1 58 58 63 1 0.255 slower 0 2.331550e+06 2.331553e+06 2.273
11 irregular 1 59 59 56 2.500000e+00 0.504 slower 1 2.331554e+06 2.331558e+06 3.718
11 irregular 1 60 60 63 3 0.485 faster 1 2.331559e+06 2.331563e+06 4.256
11 irregular 1 61 61 57 1.500000e+00 0.228 faster 0 2.331564e+06 2.331566e+06 2.579
11 irregular 1 62 62 64 1 0.320 faster 1 2.331567e+06 2.331570e+06 2.060
11 irregular 1 63 63 63 1.500000e+00 0.357 slower 0 2.331571e+06 2.331573e+06 2.354
11 irregular 1 64 64 64 1 0.329 slower 0 2.331574e+06 2.331576e+06 2.084
11 irregular 1 65 65 65 1.500000e+00 0.374 slower 0 2.331577e+06 2.331581e+06 3.607
11 irregular 1 66 66 54 1.500000e+00 0.337 slower 1 2.331582e+06 2.331584e+06 2.693
11 irregular 1 67 67 54 1 0.284 slower 1 2.331585e+06 2.331588e+06 3.210
11 irregular 1 68 68 55 2 0.273 slower 1 2.331589e+06 2.331592e+06 2.960
11 irregular 1 69 69 65 1 0.145 slower 0 2.331593e+06 2.331595e+06 1.850
11 irregular 1 70 70 66 3 0.477 slower 0 2.331596e+06 2.331600e+06 3.908
11 irregular 1 71 71 53 3 0.318 slower 1 2.331601e+06 2.331605e+06 4.406
11 irregular 1 72 72 54 2.500000e+00 0.424 slower 1 2.331607e+06 2.331610e+06 3.882
11 irregular 1 73 73 66 1 0.595 faster 1 2.331612e+06 2.331614e+06 1.909
11 irregular 1 74 74 55 3 0.226 slower 1 2.331615e+06 2.331618e+06 3.983
11 irregular 1 75 75 55 1.500000e+00 0.500 faster 0 2.331620e+06 2.331622e+06 2.326
11 irregular 1 76 76 66 2.500000e+00 0.206 slower 0 2.331623e+06 2.331626e+06 3.184
11 irregular 1 77 77 67 2 0.445 slower 0 2.331627e+06 2.331631e+06 3.948
11 irregular 1 78 78 68 3 0.548 slower 0 2.331632e+06 2.331637e+06 5.146
11 irregular 1 79 79 51 2.500000e+00 0.547 slower 1 2.331639e+06 2.331643e+06 4.116
11 irregular 1 80 80 52 3 0.197 slower 1 2.331644e+06 2.331648e+06 3.946
11 irregular 1 81 81 52 2.500000e+00 0.346 slower 1 2.331649e+06 2.331653e+06 4.262
11 irregular 1 82 82 53 3 0.484 slower 1 2.331654e+06 2.331659e+06 5.056
11 irregular 1 83 83 67 1.500000e+00 0.575 faster 1 2.331660e+06 2.331663e+06 2.379
11 irregular 1 84 84 66 3 0.246 faster 1 2.331664e+06 2.331667e+06 3.816
11 irregular 1 85 85 54 1.500000e+00 0.556 slower 1 2.331669e+06 2.331671e+06 2.483
11 irregular 1 86 86 55 1.500000e+00 0.571 slower 1 2.331672e+06 2.331675e+06 2.427
11 irregular 1 87 87 65 1.500000e+00 0.295 slower 0 2.331676e+06 2.331679e+06 3.239
11 irregular 1 88 88 66 2.500000e+00 0.472 slower 0 2.331680e+06 2.331685e+06 4.149
11 irregular 1 89 89 53 3 0.590 slower 1 2.331687e+06 2.331692e+06 5.005
11 irregular 1 90 90 66 3 0.578 faster 1 2.331694e+06 2.331697e+06 3.702
11 irregular 1 91 91 54 3 0.234 faster 0 2.331698e+06 2.331704e+06 5.932
11 irregular 1 92 92 53 1 0.142 slower 1 2.331705e+06 2.331707e+06 1.835
11 irregular 1 93 93 66 2 0.526 faster 1 2.331708e+06 2.331711e+06 3.193
11 irregular 1 94 94 66 1 0.377 faster 1 2.331712e+06 2.331715e+06 2.614
11 irregular 1 95 95 55 3 0.587 slower 1 2.331716e+06 2.331722e+06 5.956
11 irregular 1 96 96 55 2.500000e+00 0.250 faster 0 2.331723e+06 2.331726e+06 3.589
11 irregular 1 97 97 66 2 0.318 slower 0 2.331727e+06 2.331732e+06 4.294
11 irregular 1 98 98 53 1 0.189 slower 1 2.331733e+06 2.331735e+06 2.652
11 irregular 1 99 99 54 3 0.595 slower 1 2.331737e+06 2.331742e+06 5.109
11 irregular 1 100 100 66 1.500000e+00 0.494 faster 1 2.331743e+06 2.331746e+06 3.416
11 regular 2 1 101 65 3 0.571 slower 0 2.331801e+06 2.331807e+06 5.543
11 regular 2 2 102 66 3 0.465 faster 1 2.331808e+06 2.331812e+06 4.165
11 regular 2 3 103 66 3 0.288 faster 1 2.331813e+06 2.331817e+06 4.376
11 regular 2 4 104 55 3 0.138 slower 1 2.331818e+06 2.331822e+06 4.047
11 regular 2 5 105 65 3 0.302 faster 1 2.331823e+06 2.331828e+06 4.701
11 regular 2 6 106 56 3 0.450 slower 1 2.331829e+06 2.331833e+06 3.934
11 regular 2 7 107 56 3 0.115 slower 1 2.331834e+06 2.331838e+06 4.040
11 regular 2 8 108 63 3 0.523 slower 0 2.331839e+06 2.331843e+06 3.859
11 regular 2 9 109 56 3 0.271 faster 0 2.331844e+06 2.331848e+06 3.823
11 regular 2 10 110 65 3 0.521 slower 0 2.331849e+06 2.331854e+06 4.263
11 regular 2 11 111 66 3 0.466 faster 1 2.331855e+06 2.331859e+06 3.926
11 regular 2 12 112 54 3 0.290 slower 1 2.331860e+06 2.331864e+06 3.941
11 regular 2 13 113 65 3 0.421 slower 0 2.331865e+06 2.331869e+06 3.867
11 regular 2 14 114 66 3 0.190 faster 1 2.331870e+06 2.331875e+06 5.532
11 regular 2 15 115 54 3 0.157 faster 0 2.331876e+06 2.331881e+06 4.514
11 regular 2 16 116 67 3 0.439 slower 0 2.331882e+06 2.331886e+06 4.117
11 regular 2 17 117 52 3 0.122 slower 1 2.331887e+06 2.331890e+06 3.796
11 regular 2 18 118 53 3 0.294 slower 1 2.331891e+06 2.331895e+06 4.018
11 regular 2 19 119 53 3 0.522 slower 1 2.331896e+06 2.331901e+06 4.097
11 regular 2 20 120 54 3 0.542 slower 1 2.331902e+06 2.331905e+06 3.744
11 regular 2 21 121 54 3 0.162 slower 1 2.331906e+06 2.331911e+06 4.812
11 regular 2 22 122 55 3 0.123 slower 1 2.331912e+06 2.331916e+06 4.085
11 regular 2 23 123 65 3 0.240 faster 1 2.331917e+06 2.331921e+06 4.551
11 regular 2 24 124 56 3 0.504 slower 1 2.331922e+06 2.331927e+06 4.103
11 regular 2 25 125 64 3 0.466 slower 0 2.331928e+06 2.331932e+06 4.614
11 regular 2 26 126 55 3 0.266 slower 1 2.331933e+06 2.331937e+06 4.139
11 regular 2 27 127 56 3 0.189 slower 1 2.331939e+06 2.331943e+06 4.541
11 regular 2 28 128 64 3 0.179 slower 0 2.331944e+06 2.331949e+06 4.747
11 regular 2 29 129 65 3 0.194 faster 1 2.331950e+06 2.331954e+06 4.271
11 regular 2 30 130 64 3 0.472 faster 1 2.331955e+06 2.331960e+06 5.471
11 regular 2 31 131 56 3 0.193 faster 0 2.331962e+06 2.331967e+06 4.871
11 regular 2 32 132 65 3 0.340 slower 0 2.331968e+06 2.331972e+06 4.176
11 regular 2 33 133 66 3 0.310 faster 1 2.331974e+06 2.331978e+06 4.223
11 regular 2 34 134 65 3 0.411 faster 1 2.331980e+06 2.331984e+06 4.178
11 regular 2 35 135 55 3 0.102 slower 1 2.331985e+06 2.331991e+06 5.233
11 regular 2 36 136 64 3 0.383 faster 1 2.331992e+06 2.331996e+06 4.217
11 regular 2 37 137 64 3 0.594 faster 1 2.331997e+06 2.332002e+06 5.238
11 regular 2 38 138 63 3 0.519 faster 1 2.332003e+06 2.332008e+06 4.706
11 regular 2 39 139 57 3 0.547 faster 0 2.332009e+06 2.332014e+06 4.252
11 regular 2 40 140 56 3 0.312 slower 1 2.332015e+06 2.332019e+06 4.510
11 regular 2 41 141 63 3 0.582 slower 0 2.332021e+06 2.332025e+06 4.419
11 regular 2 42 142 64 3 0.127 faster 1 2.332026e+06 2.332030e+06 4.164
11 regular 2 43 143 64 3 0.177 faster 1 2.332031e+06 2.332036e+06 5.487
11 regular 2 44 144 57 3 0.201 faster 0 2.332037e+06 2.332042e+06 4.826
11 regular 2 45 145 64 3 0.421 slower 0 2.332043e+06 2.332047e+06 4.200
11 regular 2 46 146 55 3 0.480 slower 1 2.332048e+06 2.332052e+06 3.931
11 regular 2 47 147 65 3 0.516 faster 1 2.332053e+06 2.332058e+06 5.086
11 regular 2 48 148 64 3 0.553 slower 0 2.332060e+06 2.332064e+06 3.997
11 regular 2 49 149 65 3 0.487 slower 0 2.332065e+06 2.332071e+06 5.078
11 regular 2 50 150 54 3 0.338 slower 1 2.332072e+06 2.332076e+06 4.384
11 regular 2 51 151 54 3 0.503 slower 1 2.332077e+06 2.332082e+06 4.378
11 regular 2 52 152 55 3 0.404 slower 1 2.332085e+06 2.332089e+06 4.311
11 regular 2 53 153 55 3 0.452 slower 1 2.332090e+06 2.332095e+06 4.569
11 regular 2 54 154 56 3 0.142 slower 1 2.332097e+06 2.332101e+06 3.942
11 regular 2 55 155 56 3 0.430 slower 1 2.332102e+06 2.332106e+06 4.529
11 regular 2 56 156 63 3 0.145 faster 1 2.332107e+06 2.332111e+06 3.913
11 regular 2 57 157 63 3 0.429 slower 0 2.332112e+06 2.332117e+06 5.309
11 regular 2 58 158 56 3 0.271 slower 1 2.332118e+06 2.332122e+06 3.848
11 regular 2 59 159 57 3 0.193 slower 1 2.332123e+06 2.332127e+06 4.349
11 regular 2 60 160 63 3 0.139 slower 0 2.332128e+06 2.332132e+06 3.873
11 regular 2 61 161 56 3 0.482 faster 0 2.332133e+06 2.332137e+06 4.318
11 regular 2 62 162 55 3 0.247 slower 1 2.332139e+06 2.332143e+06 3.583
11 regular 2 63 163 64 3 0.392 faster 1 2.332144e+06 2.332147e+06 3.823
11 regular 2 64 164 56 3 0.374 faster 0 2.332148e+06 2.332153e+06 4.517
11 regular 2 65 165 65 3 0.458 faster 1 2.332154e+06 2.332158e+06 3.976
11 regular 2 66 166 64 3 0.109 faster 1 2.332159e+06 2.332163e+06 3.964
11 regular 2 67 167 64 3 0.294 faster 1 2.332164e+06 2.332167e+06 3.697
11 regular 2 68 168 57 3 0.335 slower 1 2.332168e+06 2.332174e+06 5.421
11 regular 2 69 169 57 3 0.448 slower 1 2.332175e+06 2.332180e+06 4.718
11 regular 2 70 170 62 3 0.418 slower 0 2.332181e+06 2.332185e+06 4.318
11 regular 2 71 171 57 3 0.339 faster 0 2.332186e+06 2.332191e+06 4.979
11 regular 2 72 172 64 3 0.396 faster 1 2.332192e+06 2.332196e+06 4.002
11 regular 2 73 173 64 3 0.412 faster 1 2.332197e+06 2.332202e+06 4.646
11 regular 2 74 174 63 3 0.322 slower 0 2.332203e+06 2.332207e+06 4.355
11 regular 2 75 175 56 3 0.274 slower 1 2.332208e+06 2.332212e+06 3.711
11 regular 2 76 176 56 3 0.119 faster 0 2.332212e+06 2.332216e+06 4.113
11 regular 2 77 177 55 3 0.324 slower 1 2.332220e+06 2.332224e+06 4.568
11 regular 2 78 178 56 3 0.306 slower 1 2.332227e+06 2.332232e+06 5.298
11 regular 2 79 179 56 3 0.561 slower 1 2.332234e+06 2.332238e+06 3.967
11 regular 2 80 180 63 3 0.254 faster 1 2.332239e+06 2.332243e+06 4.031
11 regular 2 81 181 57 3 0.518 faster 0 2.332244e+06 2.332250e+06 5.624
11 regular 2 82 182 56 3 0.359 faster 0 2.332251e+06 2.332255e+06 4.768
11 regular 2 83 183 55 3 0.198 slower 1 2.332256e+06 2.332260e+06 3.963
11 regular 2 84 184 64 3 0.530 faster 1 2.332262e+06 2.332266e+06 3.911
11 regular 2 85 185 64 3 0.523 faster 1 2.332267e+06 2.332271e+06 3.996
11 regular 2 86 186 63 3 0.516 slower 0 2.332279e+06 2.332284e+06 5.685
11 regular 2 87 187 64 3 0.295 faster 1 2.332287e+06 2.332291e+06 4.578
11 regular 2 88 188 56 3 0.247 faster 0 2.332294e+06 2.332299e+06 5.129
11 regular 2 89 189 65 3 0.389 faster 1 2.332305e+06 2.332309e+06 4.054
11 regular 2 90 190 64 3 0.341 faster 1 2.332311e+06 2.332316e+06 4.433
11 regular 2 91 191 56 3 0.114 faster 0 2.332316e+06 2.332321e+06 4.960
11 regular 2 92 192 55 3 0.338 slower 1 2.332322e+06 2.332326e+06 4.229
11 regular 2 93 193 56 3 0.217 faster 0 2.332327e+06 2.332333e+06 5.282
11 regular 2 94 194 65 3 0.219 slower 0 2.332333e+06 2.332339e+06 5.373
11 regular 2 95 195 66 3 0.392 none 2 2.332341e+06 2.332347e+06 6.000
11 regular 2 96 196 54 3 0.393 slower 1 2.332348e+06 2.332352e+06 4.098
11 regular 2 97 197 66 3 0.308 slower 0 2.332353e+06 2.332358e+06 4.591
11 regular 2 98 198 53 3 0.500 slower 1 2.332360e+06 2.332364e+06 3.896
11 regular 2 99 199 54 3 0.252 slower 1 2.332369e+06 2.332373e+06 4.145
11 regular 2 100 200 66 3 0.479 faster 1 2.332374e+06 2.332378e+06 3.975
11 irregular 3 1 201 65 3 0.176 faster 1 2.332439e+06 2.332443e+06 3.988
11 irregular 3 2 202 55 3 0.501 slower 1 2.332444e+06 2.332448e+06 4.243
11 irregular 3 3 203 64 1 0.487 slower 0 2.332450e+06 2.332453e+06 3.025
11 irregular 3 4 204 55 2.500000e+00 0.313 slower 1 2.332454e+06 2.332458e+06 3.459
11 irregular 3 5 205 55 1 0.442 slower 1 2.332459e+06 2.332461e+06 2.569
11 irregular 3 6 206 56 3 0.146 slower 1 2.332462e+06 2.332467e+06 4.812
11 irregular 3 7 207 56 2 0.140 faster 0 2.332469e+06 2.332472e+06 3.466
11 irregular 3 8 208 55 2 0.188 faster 0 2.332473e+06 2.332476e+06 2.843
11 irregular 3 9 209 54 1 0.282 slower 1 2.332477e+06 2.332479e+06 2.093
11 irregular 3 10 210 55 2.500000e+00 0.124 faster 0 2.332480e+06 2.332483e+06 3.653
11 irregular 3 11 211 54 1 0.406 slower 1 2.332484e+06 2.332487e+06 2.651
11 irregular 3 12 212 66 1 0.555 none 2 2.332488e+06 2.332492e+06 3.999
11 irregular 3 13 213 54 2 0.320 slower 1 2.332493e+06 2.332496e+06 2.831
11 irregular 3 14 214 55 1.500000e+00 0.140 slower 1 2.332497e+06 2.332500e+06 3.462
11 irregular 3 15 215 55 1 0.166 slower 1 2.332501e+06 2.332503e+06 1.847
11 irregular 3 16 216 56 1.500000e+00 0.137 slower 1 2.332504e+06 2.332506e+06 2.680
11 irregular 3 17 217 64 1 0.585 faster 1 2.332508e+06 2.332510e+06 2.108
11 irregular 3 18 218 63 2.500000e+00 0.126 faster 1 2.332511e+06 2.332514e+06 3.567
11 irregular 3 19 219 57 2 0.452 slower 1 2.332515e+06 2.332519e+06 3.463
11 irregular 3 20 220 62 3 0.401 slower 0 2.332520e+06 2.332524e+06 3.977
11 irregular 3 21 221 63 1 0.109 faster 1 2.332525e+06 2.332527e+06 2.375
11 irregular 3 22 222 57 3 0.350 slower 1 2.332528e+06 2.332533e+06 5.097
11 irregular 3 23 223 58 3 0.293 slower 1 2.332535e+06 2.332539e+06 4.060
11 irregular 3 24 224 62 1 0.198 slower 0 2.332541e+06 2.332543e+06 2.169
11 irregular 3 25 225 57 2 0.570 slower 1 2.332544e+06 2.332548e+06 3.704
11 irregular 3 26 226 62 1 0.386 slower 0 2.332549e+06 2.332551e+06 2.562
11 irregular 3 27 227 63 2 0.263 slower 0 2.332552e+06 2.332556e+06 3.335
11 irregular 3 28 228 64 3 0.553 faster 1 2.332557e+06 2.332561e+06 4.191
11 irregular 3 29 229 64 1.500000e+00 0.226 slower 0 2.332562e+06 2.332564e+06 2.529
11 irregular 3 30 230 65 3 0.495 faster 1 2.332566e+06 2.332571e+06 4.966
11 irregular 3 31 231 64 1.500000e+00 0.249 slower 0 2.332572e+06 2.332575e+06 2.454
11 irregular 3 32 232 55 2.500000e+00 0.495 slower 1 2.332576e+06 2.332580e+06 4.157
11 irregular 3 33 233 65 2 0.230 faster 1 2.332582e+06 2.332585e+06 3.419
11 irregular 3 34 234 64 1.500000e+00 0.137 slower 0 2.332586e+06 2.332591e+06 4.425
11 irregular 3 35 235 65 2 0.231 slower 0 2.332592e+06 2.332595e+06 3.792
11 irregular 3 36 236 54 2.500000e+00 0.501 slower 1 2.332596e+06 2.332600e+06 3.399
11 irregular 3 37 237 66 2.500000e+00 0.489 faster 1 2.332601e+06 2.332606e+06 4.782
11 irregular 3 38 238 55 1.500000e+00 0.287 slower 1 2.332607e+06 2.332609e+06 2.290
11 irregular 3 39 239 65 1 0.589 slower 0 2.332610e+06 2.332613e+06 2.292
11 irregular 3 40 240 66 2.500000e+00 0.534 faster 1 2.332614e+06 2.332617e+06 3.592
11 irregular 3 41 241 55 2 0.278 none 2 2.332618e+06 2.332623e+06 5.000
11 irregular 3 42 242 65 1.500000e+00 0.275 faster 1 2.332624e+06 2.332628e+06 3.644
11 irregular 3 43 243 55 1.500000e+00 0.408 faster 0 2.332629e+06 2.332632e+06 3.494
11 irregular 3 44 244 66 2.500000e+00 0.461 faster 1 2.332634e+06 2.332639e+06 5.419
11 irregular 3 45 245 65 2.500000e+00 0.243 slower 0 2.332640e+06 2.332644e+06 3.700
11 irregular 3 46 246 66 1.500000e+00 0.339 slower 0 2.332645e+06 2.332648e+06 2.667
11 irregular 3 47 247 67 1 0.201 slower 0 2.332649e+06 2.332651e+06 1.868
11 irregular 3 48 248 68 3 0.178 slower 0 2.332651e+06 2.332655e+06 3.908
11 irregular 3 49 249 69 2.500000e+00 0.509 faster 1 2.332656e+06 2.332661e+06 4.159
11 irregular 3 50 250 69 2.500000e+00 0.239 faster 1 2.332662e+06 2.332665e+06 3.342
11 irregular 3 51 251 68 2 0.322 faster 1 2.332666e+06 2.332669e+06 2.886
11 irregular 3 52 252 68 2 0.592 faster 1 2.332670e+06 2.332673e+06 2.876
11 irregular 3 53 253 53 2.500000e+00 0.190 slower 1 2.332674e+06 2.332677e+06 3.276
11 irregular 3 54 254 67 2 0.371 slower 0 2.332678e+06 2.332681e+06 2.958
11 irregular 3 55 255 68 3 0.160 slower 0 2.332682e+06 2.332687e+06 4.859
11 irregular 3 56 256 51 3 0.426 slower 1 2.332688e+06 2.332692e+06 3.825
11 irregular 3 57 257 68 2.500000e+00 0.258 slower 0 2.332693e+06 2.332698e+06 5.414
11 irregular 3 58 258 51 1 0.559 slower 1 2.332699e+06 2.332701e+06 1.982
11 irregular 3 59 259 51 1.500000e+00 0.222 slower 1 2.332702e+06 2.332705e+06 2.730
11 irregular 3 60 260 52 1.500000e+00 0.427 slower 1 2.332707e+06 2.332710e+06 2.414
11 irregular 3 61 261 52 2 0.541 slower 1 2.332711e+06 2.332715e+06 3.840
11 irregular 3 62 262 53 1.500000e+00 0.556 slower 1 2.332717e+06 2.332720e+06 2.540
11 irregular 3 63 263 53 2.500000e+00 0.378 slower 1 2.332721e+06 2.332725e+06 3.809
11 irregular 3 64 264 54 1 0.250 none 2 2.332725e+06 2.332729e+06 4.000
11 irregular 3 65 265 66 2 0.535 faster 1 2.332731e+06 2.332734e+06 3.032
11 irregular 3 66 266 54 3 0.494 faster 0 2.332737e+06 2.332741e+06 3.928
11 irregular 3 67 267 67 3 0.215 faster 1 2.332742e+06 2.332746e+06 4.019
11 irregular 3 68 268 66 1.500000e+00 0.122 faster 1 2.332748e+06 2.332752e+06 4.018
11 irregular 3 69 269 54 2 0.164 slower 1 2.332755e+06 2.332758e+06 3.193
11 irregular 3 70 270 65 1.500000e+00 0.510 faster 1 2.332759e+06 2.332762e+06 2.450
11 irregular 3 71 271 55 3 0.460 faster 0 2.332763e+06 2.332767e+06 3.901
11 irregular 3 72 272 66 3 0.256 slower 0 2.332769e+06 2.332773e+06 3.822
11 irregular 3 73 273 53 1 0.215 none 2 2.332774e+06 2.332778e+06 4.000
11 irregular 3 74 274 67 1 0.529 faster 1 2.332779e+06 2.332781e+06 2.102
11 irregular 3 75 275 66 3 0.203 faster 1 2.332782e+06 2.332786e+06 4.067
11 irregular 3 76 276 66 1 0.468 faster 1 2.332787e+06 2.332789e+06 2.074
11 irregular 3 77 277 65 2 0.595 faster 1 2.332796e+06 2.332799e+06 3.303
11 irregular 3 78 278 65 1.500000e+00 0.576 none 2 2.332801e+06 2.332806e+06 4.499
11 irregular 3 79 279 65 1.500000e+00 0.548 slower 0 2.332807e+06 2.332809e+06 2.226
11 irregular 3 80 280 54 1 0.460 slower 1 2.332811e+06 2.332813e+06 1.858
11 irregular 3 81 281 55 2.500000e+00 0.541 slower 1 2.332814e+06 2.332817e+06 3.379
11 irregular 3 82 282 55 2 0.395 slower 1 2.332818e+06 2.332821e+06 2.883
11 irregular 3 83 283 56 2.500000e+00 0.297 slower 1 2.332822e+06 2.332826e+06 3.862
11 irregular 3 84 284 56 2.500000e+00 0.554 slower 1 2.332833e+06 2.332837e+06 4.412
11 irregular 3 85 285 63 2.500000e+00 0.231 slower 0 2.332839e+06 2.332843e+06 4.766
11 irregular 3 86 286 64 2 0.201 slower 0 2.332845e+06 2.332849e+06 4.656
11 irregular 3 87 287 65 2 0.277 faster 1 2.332850e+06 2.332854e+06 4.135
11 irregular 3 88 288 55 1 0.504 slower 1 2.332855e+06 2.332858e+06 2.104
11 irregular 3 89 289 56 1.500000e+00 0.190 slower 1 2.332858e+06 2.332861e+06 3.006
11 irregular 3 90 290 56 1.500000e+00 0.301 slower 1 2.332866e+06 2.332868e+06 2.520
11 irregular 3 91 291 63 3 0.116 faster 1 2.332869e+06 2.332874e+06 5.075
11 irregular 3 92 292 63 2.500000e+00 0.337 slower 0 2.332876e+06 2.332879e+06 3.599
11 irregular 3 93 293 56 1.500000e+00 0.120 slower 1 2.332882e+06 2.332884e+06 2.259
11 irregular 3 94 294 57 1 0.363 slower 1 2.332887e+06 2.332889e+06 2.021
11 irregular 3 95 295 57 3 0.342 slower 1 2.332897e+06 2.332901e+06 4.073
11 irregular 3 96 296 58 2.500000e+00 0.378 faster 0 2.332906e+06 2.332910e+06 4.371
11 irregular 3 97 297 57 2 0.313 slower 1 2.332921e+06 2.332924e+06 2.905
11 irregular 3 98 298 63 1.500000e+00 0.159 none 2 2.332925e+06 2.332929e+06 4.500
11 irregular 3 99 299 57 3 0.528 slower 1 2.332932e+06 2.332936e+06 3.979
11 irregular 3 100 300 58 3 0.532 slower 1 2.332945e+06 2.332950e+06 5.248
11 regular 4 1 301 58 1 0.337 slower 1 2.333067e+06 2.333069e+06 2.322
11 regular 4 2 302 59 1 0.239 slower 1 2.333070e+06 2.333072e+06 2.243
11 regular 4 3 303 61 1 0.401 slower 0 2.333073e+06 2.333076e+06 2.527
11 regular 4 4 304 62 1 0.163 faster 1 2.333077e+06 2.333079e+06 1.861
11 regular 4 5 305 59 1 0.540 slower 1 2.333080e+06 2.333082e+06 2.214
11 regular 4 6 306 59 1 0.475 slower 1 2.333083e+06 2.333086e+06 2.884
11 regular 4 7 307 61 1 0.506 slower 0 2.333088e+06 2.333090e+06 2.081
11 regular 4 8 308 62 1 0.155 slower 0 2.333090e+06 2.333094e+06 3.235
11 regular 4 9 309 63 1 0.492 faster 1 2.333095e+06 2.333097e+06 2.092
11 regular 4 10 310 57 1 0.539 slower 1 2.333098e+06 2.333100e+06 1.906
11 regular 4 11 311 58 1 0.383 slower 1 2.333101e+06 2.333103e+06 1.906
11 regular 4 12 312 58 1 0.382 slower 1 2.333104e+06 2.333106e+06 2.432
11 regular 4 13 313 61 1 0.148 slower 0 2.333107e+06 2.333110e+06 2.592
11 regular 4 14 314 58 1 0.414 slower 1 2.333111e+06 2.333113e+06 2.654
11 regular 4 15 315 58 1 0.547 faster 0 2.333115e+06 2.333116e+06 1.779
11 regular 4 16 316 57 1 0.445 slower 1 2.333118e+06 2.333120e+06 2.400
11 regular 4 17 317 58 1 0.252 slower 1 2.333121e+06 2.333123e+06 2.697
11 regular 4 18 318 58 1 0.170 slower 1 2.333124e+06 2.333127e+06 2.835
11 regular 4 19 319 61 1 0.426 slower 0 2.333128e+06 2.333130e+06 2.196
11 regular 4 20 320 58 1 0.345 slower 1 2.333131e+06 2.333135e+06 3.729
11 regular 4 21 321 58 1 0.321 faster 0 2.333136e+06 2.333139e+06 2.456
11 regular 4 22 322 57 1 0.506 faster 0 2.333140e+06 2.333142e+06 2.521
11 regular 4 23 323 64 1 0.305 slower 0 2.333143e+06 2.333146e+06 3.117
11 regular 4 24 324 65 1 0.416 slower 0 2.333148e+06 2.333151e+06 2.963
11 regular 4 25 325 66 1 0.132 faster 1 2.333152e+06 2.333154e+06 1.943
11 regular 4 26 326 65 1 0.360 slower 0 2.333155e+06 2.333157e+06 2.181
11 regular 4 27 327 54 1 0.493 slower 1 2.333158e+06 2.333160e+06 1.971
11 regular 4 28 328 66 1 0.312 faster 1 2.333161e+06 2.333163e+06 1.965
11 regular 4 29 329 55 1 0.338 slower 1 2.333164e+06 2.333168e+06 3.434
11 regular 4 30 330 55 1 0.384 faster 0 2.333169e+06 2.333171e+06 2.126
11 regular 4 31 331 54 1 0.127 faster 0 2.333172e+06 2.333174e+06 2.406
11 regular 4 32 332 67 1 0.460 faster 1 2.333175e+06 2.333178e+06 2.652
11 regular 4 33 333 54 1 0.184 faster 0 2.333179e+06 2.333182e+06 2.951
11 regular 4 34 334 67 1 0.308 slower 0 2.333183e+06 2.333185e+06 2.776
11 regular 4 35 335 52 1 0.293 slower 1 2.333186e+06 2.333189e+06 2.913
11 regular 4 36 336 68 1 0.545 faster 1 2.333190e+06 2.333193e+06 2.248
11 regular 4 37 337 53 1 0.263 faster 0 2.333193e+06 2.333196e+06 2.305
11 regular 4 38 338 52 1 0.123 slower 1 2.333197e+06 2.333199e+06 2.143
11 regular 4 39 339 52 1 0.472 slower 1 2.333200e+06 2.333202e+06 2.383
11 regular 4 40 340 67 1 0.187 slower 0 2.333203e+06 2.333205e+06 1.833
11 regular 4 41 341 52 1 0.343 slower 1 2.333206e+06 2.333208e+06 1.962
11 regular 4 42 342 68 1 0.573 faster 1 2.333210e+06 2.333212e+06 1.783
11 regular 4 43 343 53 1 0.444 faster 0 2.333213e+06 2.333216e+06 2.783
11 regular 4 44 344 52 1 0.268 slower 1 2.333217e+06 2.333219e+06 2.372
11 regular 4 45 345 68 1 0.476 faster 1 2.333220e+06 2.333222e+06 2.107
11 regular 4 46 346 53 1 0.469 slower 1 2.333224e+06 2.333225e+06 1.854
11 regular 4 47 347 67 1 0.187 faster 1 2.333227e+06 2.333229e+06 1.829
11 regular 4 48 348 66 1 0.571 slower 0 2.333233e+06 2.333235e+06 2.059
11 regular 4 49 349 53 1 0.516 faster 0 2.333236e+06 2.333239e+06 3.260
11 regular 4 50 350 68 1 0.494 faster 1 2.333240e+06 2.333242e+06 1.823
11 regular 4 51 351 68 1 0.252 faster 1 2.333243e+06 2.333245e+06 1.756
11 regular 4 52 352 53 1 0.284 slower 1 2.333246e+06 2.333249e+06 2.856
11 regular 4 53 353 53 1 0.561 faster 0 2.333250e+06 2.333252e+06 2.247
11 regular 4 54 354 52 1 0.479 slower 1 2.333254e+06 2.333256e+06 2.325
11 regular 4 55 355 53 1 0.521 slower 1 2.333257e+06 2.333259e+06 2.101
11 regular 4 56 356 67 1 0.229 slower 0 2.333260e+06 2.333262e+06 1.983
11 regular 4 57 357 68 1 0.226 faster 1 2.333264e+06 2.333266e+06 1.888
11 regular 4 58 358 53 1 0.417 slower 1 2.333267e+06 2.333269e+06 1.946
11 regular 4 59 359 53 1 0.130 slower 1 2.333269e+06 2.333271e+06 1.832
11 regular 4 60 360 54 1 0.406 slower 1 2.333273e+06 2.333275e+06 2.483
11 regular 4 61 361 54 1 0.498 slower 1 2.333279e+06 2.333283e+06 3.127
11 regular 4 62 362 65 1 0.287 faster 1 2.333284e+06 2.333286e+06 1.804
11 regular 4 63 363 55 1 0.481 slower 1 2.333287e+06 2.333289e+06 1.901
11 regular 4 64 364 56 1 0.109 slower 1 2.333290e+06 2.333292e+06 2.048
11 regular 4 65 365 64 1 0.344 faster 1 2.333293e+06 2.333296e+06 3.150
11 regular 4 66 366 57 1 0.597 faster 0 2.333298e+06 2.333300e+06 2.355
11 regular 4 67 367 64 1 0.307 slower 0 2.333304e+06 2.333306e+06 2.131
11 regular 4 68 368 65 1 0.500 faster 1 2.333315e+06 2.333319e+06 3.667
11 regular 4 69 369 55 1 0.545 slower 1 2.333320e+06 2.333322e+06 1.882
11 regular 4 70 370 64 1 0.149 slower 0 2.333322e+06 2.333324e+06 2.050
11 regular 4 71 371 55 1 0.237 slower 1 2.333326e+06 2.333329e+06 2.776
11 regular 4 72 372 65 1 0.160 faster 1 2.333329e+06 2.333331e+06 1.855
11 regular 4 73 373 64 1 0.116 faster 1 2.333332e+06 2.333334e+06 1.678
11 regular 4 74 374 56 1 0.592 faster 0 2.333342e+06 2.333344e+06 2.735
11 regular 4 75 375 65 1 0.385 faster 1 2.333347e+06 2.333349e+06 2.006
11 regular 4 76 376 56 1 0.399 slower 1 2.333351e+06 2.333354e+06 3.061
11 regular 4 77 377 64 1 0.525 faster 1 2.333386e+06 2.333389e+06 2.720
11 regular 4 78 378 63 1 0.256 faster 1 2.333390e+06 2.333393e+06 3.007
11 regular 4 79 379 57 1 0.411 slower 1 2.333394e+06 2.333396e+06 2.174
11 regular 4 80 380 58 1 0.278 slower 1 2.333397e+06 2.333399e+06 2.376
11 regular 4 81 381 58 1 0.379 slower 1 2.333400e+06 2.333402e+06 1.752
11 regular 4 82 382 61 1 0.100 slower 0 2.333403e+06 2.333405e+06 1.901
11 regular 4 83 383 62 1 0.319 slower 0 2.333406e+06 2.333408e+06 1.759
11 regular 4 84 384 57 1 0.303 slower 1 2.333409e+06 2.333410e+06 1.692
11 regular 4 85 385 63 1 0.194 faster 1 2.333411e+06 2.333413e+06 1.838
11 regular 4 86 386 62 1 0.378 faster 1 2.333414e+06 2.333416e+06 1.583
11 regular 4 87 387 62 1 0.450 faster 1 2.333417e+06 2.333419e+06 2.145
11 regular 4 88 388 59 1 0.471 slower 1 2.333420e+06 2.333422e+06 1.915
11 regular 4 89 389 61 1 0.437 faster 1 2.333423e+06 2.333425e+06 2.134
11 regular 4 90 390 61 1 0.113 faster 1 2.333426e+06 2.333428e+06 1.802
11 regular 4 91 391 61 1 0.413 faster 1 2.333429e+06 2.333431e+06 1.976
11 regular 4 92 392 61 1 0.595 slower 0 2.333433e+06 2.333435e+06 2.553
11 regular 4 93 393 62 1 0.580 slower 0 2.333436e+06 2.333438e+06 2.001
11 regular 4 94 394 57 1 0.136 slower 1 2.333439e+06 2.333441e+06 2.132
11 regular 4 95 395 63 1 0.287 faster 1 2.333442e+06 2.333444e+06 1.898
11 regular 4 96 396 62 1 0.489 faster 1 2.333445e+06 2.333448e+06 2.607
11 regular 4 97 397 62 1 0.213 slower 0 2.333449e+06 2.333451e+06 1.907
11 regular 4 98 398 63 1 0.236 faster 1 2.333452e+06 2.333454e+06 2.400
11 regular 4 99 399 62 1 0.514 slower 0 2.333455e+06 2.333457e+06 1.815
11 regular 4 100 400 63 1 0.192 faster 1 2.333458e+06 2.333460e+06 2.288
11 irregular 5 1 401 57 1 0.585 slower 1 2.333488e+06 2.333490e+06 2.590
11 irregular 5 2 402 62 1 0.307 faster 1 2.333492e+06 2.333494e+06 2.375
11 irregular 5 3 403 62 1 0.482 slower 0 2.333495e+06 2.333497e+06 1.704
11 irregular 5 4 404 57 1.500000e+00 0.503 slower 1 2.333498e+06 2.333501e+06 2.201
11 irregular 5 5 405 58 3 0.125 none 2 2.333501e+06 2.333507e+06 5.999
11 irregular 5 6 406 62 1 0.234 faster 1 2.333508e+06 2.333511e+06 2.518
11 irregular 5 7 407 58 1 0.518 slower 1 2.333512e+06 2.333514e+06 1.767
11 irregular 5 8 408 59 1.500000e+00 0.598 slower 1 2.333516e+06 2.333518e+06 2.154
11 irregular 5 9 409 59 2.500000e+00 0.282 slower 1 2.333519e+06 2.333522e+06 3.592
11 irregular 5 10 410 59 3 0.591 faster 0 2.333523e+06 2.333528e+06 4.301
11 irregular 5 11 411 58 2.500000e+00 0.176 slower 1 2.333529e+06 2.333533e+06 4.339
11 irregular 5 12 412 58 1 0.550 faster 0 2.333534e+06 2.333536e+06 2.243
11 irregular 5 13 413 63 3 0.311 slower 0 2.333537e+06 2.333541e+06 3.964
11 irregular 5 14 414 56 1.500000e+00 0.284 slower 1 2.333542e+06 2.333545e+06 2.564
11 irregular 5 15 415 57 1 0.520 slower 1 2.333546e+06 2.333548e+06 2.064
11 irregular 5 16 416 57 3 0.423 slower 1 2.333550e+06 2.333554e+06 3.875
11 irregular 5 17 417 62 3 0.127 slower 0 2.333554e+06 2.333558e+06 4.163
11 irregular 5 18 418 57 3 0.402 faster 0 2.333560e+06 2.333564e+06 4.586
11 irregular 5 19 419 56 3 0.460 slower 1 2.333565e+06 2.333569e+06 3.858
11 irregular 5 20 420 64 1.500000e+00 0.193 faster 1 2.333570e+06 2.333573e+06 2.770
11 irregular 5 21 421 63 1 0.150 slower 0 2.333574e+06 2.333576e+06 1.927
11 irregular 5 22 422 64 1.500000e+00 0.281 slower 0 2.333577e+06 2.333580e+06 3.123
11 irregular 5 23 423 65 1.500000e+00 0.316 none 2 2.333581e+06 2.333585e+06 4.499
11 irregular 5 24 424 65 2 0.236 faster 1 2.333586e+06 2.333591e+06 4.541
11 irregular 5 25 425 65 2 0.406 faster 1 2.333592e+06 2.333596e+06 3.985
11 irregular 5 26 426 56 1 0.240 faster 0 2.333597e+06 2.333601e+06 3.822
11 irregular 5 27 427 55 2.500000e+00 0.323 slower 1 2.333602e+06 2.333605e+06 3.517
11 irregular 5 28 428 55 2 0.585 slower 1 2.333606e+06 2.333609e+06 2.826
11 irregular 5 29 429 64 1 0.145 faster 1 2.333610e+06 2.333613e+06 2.849
11 irregular 5 30 430 64 2.500000e+00 0.440 faster 1 2.333614e+06 2.333618e+06 4.155
11 irregular 5 31 431 57 1.500000e+00 0.111 slower 1 2.333619e+06 2.333623e+06 3.053
11 irregular 5 32 432 63 2 0.178 slower 0 2.333623e+06 2.333627e+06 4.137
11 irregular 5 33 433 56 3 0.508 faster 0 2.333629e+06 2.333633e+06 4.559
11 irregular 5 34 434 55 2 0.306 faster 0 2.333634e+06 2.333638e+06 3.929
11 irregular 5 35 435 54 2.500000e+00 0.116 slower 1 2.333639e+06 2.333643e+06 3.599
11 irregular 5 36 436 65 3 0.166 slower 0 2.333643e+06 2.333647e+06 4.080
11 irregular 5 37 437 66 2 0.414 slower 0 2.333649e+06 2.333652e+06 3.849
11 irregular 5 38 438 67 3 0.364 faster 1 2.333653e+06 2.333658e+06 4.881
11 irregular 5 39 439 67 2 0.162 faster 1 2.333659e+06 2.333663e+06 4.065
11 irregular 5 40 440 54 2.500000e+00 0.490 slower 1 2.333664e+06 2.333668e+06 3.467
11 irregular 5 41 441 66 1 0.471 none 2 2.333669e+06 2.333673e+06 3.999
11 irregular 5 42 442 54 2.500000e+00 0.543 none 2 2.333674e+06 2.333680e+06 5.500
11 irregular 5 43 443 54 2 0.405 slower 1 2.333681e+06 2.333684e+06 2.798
11 irregular 5 44 444 55 3 0.253 slower 1 2.333685e+06 2.333688e+06 3.928
11 irregular 5 45 445 65 2.500000e+00 0.379 faster 1 2.333690e+06 2.333696e+06 5.188
11 irregular 5 46 446 56 2 0.101 faster 0 2.333696e+06 2.333699e+06 2.840
11 irregular 5 47 447 55 3 0.324 faster 0 2.333700e+06 2.333705e+06 4.345
11 irregular 5 48 448 66 2.500000e+00 0.279 slower 0 2.333706e+06 2.333709e+06 3.293
11 irregular 5 49 449 53 3 0.409 faster 0 2.333710e+06 2.333715e+06 5.003
11 irregular 5 50 450 68 1.500000e+00 0.168 faster 1 2.333716e+06 2.333719e+06 2.764
11 irregular 5 51 451 52 2 0.479 slower 1 2.333721e+06 2.333723e+06 2.758
11 irregular 5 52 452 53 1.500000e+00 0.555 slower 1 2.333725e+06 2.333727e+06 2.780
11 irregular 5 53 453 67 2.500000e+00 0.454 slower 0 2.333731e+06 2.333737e+06 5.045
11 irregular 5 54 454 52 1.500000e+00 0.115 slower 1 2.333738e+06 2.333741e+06 2.295
11 irregular 5 55 455 67 2 0.558 faster 1 2.333742e+06 2.333745e+06 2.862
11 irregular 5 56 456 53 2 0.199 faster 0 2.333746e+06 2.333750e+06 3.827
11 irregular 5 57 457 68 1.500000e+00 0.363 faster 1 2.333751e+06 2.333754e+06 3.153
11 irregular 5 58 458 67 3 0.315 faster 1 2.333755e+06 2.333759e+06 4.243
11 irregular 5 59 459 53 1.500000e+00 0.247 faster 0 2.333760e+06 2.333762e+06 2.471
11 irregular 5 60 460 68 2.500000e+00 0.459 faster 1 2.333763e+06 2.333767e+06 3.305
11 irregular 5 61 461 67 1.500000e+00 0.204 slower 0 2.333768e+06 2.333770e+06 2.616
11 irregular 5 62 462 68 1.500000e+00 0.380 slower 0 2.333771e+06 2.333773e+06 2.223
11 irregular 5 63 463 51 3 0.389 slower 1 2.333775e+06 2.333779e+06 3.991
11 irregular 5 64 464 51 2 0.275 slower 1 2.333779e+06 2.333782e+06 2.977
11 irregular 5 65 465 68 2.500000e+00 0.307 faster 1 2.333785e+06 2.333788e+06 3.680
11 irregular 5 66 466 68 1 0.320 faster 1 2.333789e+06 2.333792e+06 2.247
11 irregular 5 67 467 53 1 0.548 slower 1 2.333793e+06 2.333795e+06 1.857
11 irregular 5 68 468 67 2 0.108 none 2 2.333796e+06 2.333801e+06 5.000
11 irregular 5 69 469 67 2.500000e+00 0.573 slower 0 2.333802e+06 2.333807e+06 4.418
11 irregular 5 70 470 52 2 0.578 faster 0 2.333808e+06 2.333811e+06 3.049
11 irregular 5 71 471 51 2.500000e+00 0.182 faster 0 2.333812e+06 2.333816e+06 3.649
11 irregular 5 72 472 70 1 0.546 slower 0 2.333817e+06 2.333819e+06 1.810
11 irregular 5 73 473 49 1 0.275 faster 0 2.333820e+06 2.333822e+06 2.472
11 irregular 5 74 474 72 3 0.499 faster 1 2.333823e+06 2.333827e+06 3.738
11 irregular 5 75 475 49 1 0.364 faster 0 2.333828e+06 2.333830e+06 2.259
11 irregular 5 76 476 48 1.500000e+00 0.199 faster 0 2.333833e+06 2.333836e+06 2.942
11 irregular 5 77 477 47 2 0.508 faster 0 2.333838e+06 2.333841e+06 3.062
11 irregular 5 78 478 74 1 0.169 faster 1 2.333843e+06 2.333846e+06 2.706
11 irregular 5 79 479 74 2 0.549 slower 0 2.333848e+06 2.333851e+06 2.768
11 irregular 5 80 480 45 2.500000e+00 0.517 slower 1 2.333852e+06 2.333855e+06 3.219
11 irregular 5 81 481 74 2 0.292 slower 0 2.333856e+06 2.333859e+06 3.008
11 irregular 5 82 482 45 1.500000e+00 0.581 faster 0 2.333863e+06 2.333866e+06 2.536
11 irregular 5 83 483 76 2.500000e+00 0.142 none 2 2.333867e+06 2.333872e+06 5.500
11 irregular 5 84 484 44 2.500000e+00 0.117 slower 1 2.333873e+06 2.333876e+06 3.475
11 irregular 5 85 485 44 1 0.524 slower 1 2.333878e+06 2.333879e+06 1.644
11 irregular 5 86 486 75 1 0.508 slower 0 2.333883e+06 2.333885e+06 1.786
11 irregular 5 87 487 76 3 0.157 slower 0 2.333895e+06 2.333899e+06 4.615
11 irregular 5 88 488 77 2.500000e+00 0.200 slower 0 2.333900e+06 2.333904e+06 3.585
11 irregular 5 89 489 78 1.500000e+00 0.200 slower 0 2.333905e+06 2.333907e+06 2.367
11 irregular 5 90 490 41 2 0.542 slower 1 2.333908e+06 2.333911e+06 2.612
11 irregular 5 91 491 79 3 0.334 faster 1 2.333912e+06 2.333916e+06 3.806
11 irregular 5 92 492 78 2.500000e+00 0.153 slower 0 2.333917e+06 2.333920e+06 3.239
11 irregular 5 93 493 79 1.500000e+00 0.168 slower 0 2.333927e+06 2.333930e+06 3.285
11 irregular 5 94 494 80 1.500000e+00 0.293 faster 1 2.333931e+06 2.333934e+06 2.468
11 irregular 5 95 495 80 2 0.543 faster 1 2.333935e+06 2.333938e+06 3.499
11 irregular 5 96 496 41 1 0.139 slower 1 2.333939e+06 2.333941e+06 1.731
11 irregular 5 97 497 79 3 0.365 faster 1 2.333942e+06 2.333947e+06 5.234
11 irregular 5 98 498 42 1.500000e+00 0.457 slower 1 2.333949e+06 2.333951e+06 2.306
11 irregular 5 99 499 78 3 0.490 slower 0 2.333952e+06 2.333957e+06 4.679
11 irregular 5 100 500 41 2.500000e+00 0.542 slower 1 2.333959e+06 2.333963e+06 3.261
11 regular 6 1 501 55 1.500000e+00 0.143 slower 1 2.683940e+06 2.683942e+06 2.566
11 regular 6 2 502 65 1.500000e+00 0.355 faster 1 2.683943e+06 2.683946e+06 2.964
11 regular 6 3 503 63 1.500000e+00 0.464 slower 0 2.683947e+06 2.683950e+06 2.396
11 regular 6 4 504 65 1.500000e+00 0.147 faster 1 2.683951e+06 2.683953e+06 2.711
11 regular 6 5 505 55 1.500000e+00 0.580 none 2 2.683954e+06 2.683959e+06 4.500
11 regular 6 6 506 65 1.500000e+00 0.475 slower 0 2.683960e+06 2.683963e+06 3.161
11 regular 6 7 507 67 1.500000e+00 0.504 faster 1 2.683964e+06 2.683968e+06 3.434
11 regular 6 8 508 55 1.500000e+00 0.275 slower 1 2.683969e+06 2.683972e+06 2.269
11 regular 6 9 509 55 1.500000e+00 0.323 faster 0 2.683972e+06 2.683975e+06 2.839
11 regular 6 10 510 67 1.500000e+00 0.271 slower 0 2.683976e+06 2.683979e+06 2.665
11 regular 6 11 511 51 1.500000e+00 0.426 slower 1 2.683980e+06 2.683982e+06 2.484
11 regular 6 12 512 67 1.500000e+00 0.522 faster 1 2.683984e+06 2.683986e+06 2.213
11 regular 6 13 513 67 1.500000e+00 0.377 faster 1 2.683987e+06 2.683989e+06 2.306
11 regular 6 14 514 54 1.500000e+00 0.274 faster 0 2.683990e+06 2.683993e+06 2.628
11 regular 6 15 515 53 1.500000e+00 0.251 slower 1 2.683994e+06 2.683996e+06 2.269
11 regular 6 16 516 67 1.500000e+00 0.400 faster 1 2.683997e+06 2.684000e+06 3.191
11 regular 6 17 517 66 1.500000e+00 0.339 slower 0 2.684001e+06 2.684003e+06 2.370
11 regular 6 18 518 53 1.500000e+00 0.511 slower 1 2.684005e+06 2.684007e+06 2.496
11 regular 6 19 519 53 1.500000e+00 0.581 slower 1 2.684008e+06 2.684011e+06 2.297
11 regular 6 20 520 54 1.500000e+00 0.524 slower 1 2.684012e+06 2.684014e+06 2.262
11 regular 6 21 521 54 1.500000e+00 0.168 slower 1 2.684015e+06 2.684018e+06 2.835
11 regular 6 22 522 65 1.500000e+00 0.146 slower 0 2.684018e+06 2.684022e+06 3.333
11 regular 6 23 523 66 1.500000e+00 0.434 none 2 2.684023e+06 2.684027e+06 4.500
11 regular 6 24 524 54 1.500000e+00 0.267 slower 1 2.684028e+06 2.684031e+06 2.423
11 regular 6 25 525 66 1.500000e+00 0.217 slower 0 2.684032e+06 2.684034e+06 2.641
11 regular 6 26 526 67 1.500000e+00 0.198 faster 1 2.684035e+06 2.684038e+06 2.366
11 regular 6 27 527 66 1.500000e+00 0.575 faster 1 2.684039e+06 2.684042e+06 2.953
11 regular 6 28 528 66 1.500000e+00 0.207 slower 0 2.684043e+06 2.684046e+06 3.556
11 regular 6 29 529 53 1.500000e+00 0.106 faster 0 2.684047e+06 2.684051e+06 4.265
11 regular 6 30 530 52 1.500000e+00 0.146 slower 1 2.684052e+06 2.684054e+06 2.247
11 regular 6 31 531 67 1.500000e+00 0.584 faster 1 2.684055e+06 2.684058e+06 2.609
11 regular 6 32 532 53 1.500000e+00 0.316 slower 1 2.684059e+06 2.684061e+06 2.464
11 regular 6 33 533 66 1.500000e+00 0.391 faster 1 2.684062e+06 2.684066e+06 3.437
11 regular 6 34 534 54 1.500000e+00 0.119 slower 1 2.684067e+06 2.684070e+06 3.382
11 regular 6 35 535 55 1.500000e+00 0.596 slower 1 2.684071e+06 2.684074e+06 2.699
11 regular 6 36 536 55 1.500000e+00 0.441 faster 0 2.684075e+06 2.684079e+06 3.842
11 regular 6 37 537 54 1.500000e+00 0.161 slower 1 2.684080e+06 2.684082e+06 2.634
11 regular 6 38 538 55 1.500000e+00 0.515 slower 1 2.684084e+06 2.684087e+06 2.958
11 regular 6 39 539 65 1.500000e+00 0.300 slower 0 2.684088e+06 2.684090e+06 2.811
11 regular 6 40 540 66 1.500000e+00 0.595 faster 1 2.684092e+06 2.684094e+06 2.400
11 regular 6 41 541 55 1.500000e+00 0.566 faster 0 2.684095e+06 2.684099e+06 4.133
11 regular 6 42 542 66 1.500000e+00 0.344 faster 1 2.684100e+06 2.684103e+06 2.633
11 regular 6 43 543 66 1.500000e+00 0.585 slower 0 2.684104e+06 2.684107e+06 2.773
11 regular 6 44 544 53 1.500000e+00 0.267 slower 1 2.684108e+06 2.684110e+06 2.373
11 regular 6 45 545 54 1.500000e+00 0.241 slower 1 2.684111e+06 2.684114e+06 2.477
11 regular 6 46 546 54 1.500000e+00 0.505 faster 0 2.684115e+06 2.684118e+06 2.705
11 regular 6 47 547 53 1.500000e+00 0.219 faster 0 2.684118e+06 2.684121e+06 2.533
11 regular 6 48 548 68 1.500000e+00 0.297 slower 0 2.684122e+06 2.684124e+06 2.433
11 regular 6 49 549 51 1.500000e+00 0.139 slower 1 2.684125e+06 2.684127e+06 2.191
11 regular 6 50 550 52 1.500000e+00 0.186 slower 1 2.684128e+06 2.684131e+06 2.468
11 regular 6 51 551 68 1.500000e+00 0.118 faster 1 2.684131e+06 2.684133e+06 2.176
11 regular 6 52 552 53 1.500000e+00 0.326 faster 0 2.684134e+06 2.684137e+06 2.465
11 regular 6 53 553 68 1.500000e+00 0.336 slower 0 2.684138e+06 2.684141e+06 2.700
11 regular 6 54 554 51 1.500000e+00 0.124 slower 1 2.684141e+06 2.684144e+06 2.184
11 regular 6 55 555 69 1.500000e+00 0.161 faster 1 2.684144e+06 2.684147e+06 2.375
11 regular 6 56 556 52 1.500000e+00 0.287 faster 0 2.684148e+06 2.684150e+06 2.225
11 regular 6 57 557 69 1.500000e+00 0.584 faster 1 2.684152e+06 2.684154e+06 2.369
11 regular 6 58 558 69 1.500000e+00 0.401 faster 1 2.684155e+06 2.684157e+06 2.506
11 regular 6 59 559 52 1.500000e+00 0.484 slower 1 2.684159e+06 2.684161e+06 2.106
11 regular 6 60 560 68 1.500000e+00 0.161 faster 1 2.684162e+06 2.684165e+06 2.464
11 regular 6 61 561 67 1.500000e+00 0.131 faster 1 2.684165e+06 2.684168e+06 2.307
11 regular 6 62 562 67 1.500000e+00 0.580 slower 0 2.684169e+06 2.684171e+06 2.339
11 regular 6 63 563 68 1.500000e+00 0.381 slower 0 2.684173e+06 2.684176e+06 3.707
11 regular 6 64 564 69 1.500000e+00 0.311 slower 0 2.684177e+06 2.684180e+06 2.277
11 regular 6 65 565 70 1.500000e+00 0.146 faster 1 2.684180e+06 2.684183e+06 2.506
11 regular 6 66 566 51 1.500000e+00 0.525 faster 0 2.684184e+06 2.684187e+06 2.493
11 regular 6 67 567 70 1.500000e+00 0.239 faster 1 2.684188e+06 2.684190e+06 2.244
11 regular 6 68 568 50 1.500000e+00 0.576 slower 1 2.684191e+06 2.684193e+06 2.248
11 regular 6 69 569 51 1.500000e+00 0.117 faster 0 2.684194e+06 2.684196e+06 2.409
11 regular 6 70 570 70 1.500000e+00 0.533 faster 1 2.684198e+06 2.684201e+06 2.455
11 regular 6 71 571 50 1.500000e+00 0.517 slower 1 2.684202e+06 2.684204e+06 2.084
11 regular 6 72 572 51 1.500000e+00 0.263 slower 1 2.684205e+06 2.684207e+06 2.241
11 regular 6 73 573 69 1.500000e+00 0.209 faster 1 2.684208e+06 2.684210e+06 2.131
11 regular 6 74 574 68 1.500000e+00 0.526 faster 1 2.684211e+06 2.684213e+06 2.120
11 regular 6 75 575 52 1.500000e+00 0.318 slower 1 2.684214e+06 2.684217e+06 2.159
11 regular 6 76 576 67 1.500000e+00 0.217 faster 1 2.684217e+06 2.684220e+06 2.340
11 regular 6 77 577 67 1.500000e+00 0.389 faster 1 2.684221e+06 2.684223e+06 2.179
11 regular 6 78 578 54 1.500000e+00 0.292 slower 1 2.684224e+06 2.684226e+06 2.374
11 regular 6 79 579 54 1.500000e+00 0.600 slower 1 2.684227e+06 2.684230e+06 2.192
11 regular 6 80 580 55 1.500000e+00 0.227 faster 0 2.684231e+06 2.684233e+06 2.406
11 regular 6 81 581 54 1.500000e+00 0.439 faster 0 2.684234e+06 2.684237e+06 2.557
11 regular 6 82 582 67 1.500000e+00 0.358 faster 1 2.684238e+06 2.684240e+06 2.188
11 regular 6 83 583 53 1.500000e+00 0.573 slower 1 2.684241e+06 2.684243e+06 2.280
11 regular 6 84 584 66 1.500000e+00 0.202 faster 1 2.684244e+06 2.684247e+06 2.552
11 regular 6 85 585 66 1.500000e+00 0.450 faster 1 2.684248e+06 2.684250e+06 2.456
11 regular 6 86 586 55 1.500000e+00 0.326 slower 1 2.684251e+06 2.684254e+06 2.397
11 regular 6 87 587 55 1.500000e+00 0.368 slower 1 2.684255e+06 2.684258e+06 3.315
11 regular 6 88 588 56 1.500000e+00 0.258 slower 1 2.684259e+06 2.684261e+06 2.311
11 regular 6 89 589 56 1.500000e+00 0.204 slower 1 2.684262e+06 2.684264e+06 2.524
11 regular 6 90 590 57 1.500000e+00 0.209 faster 0 2.684266e+06 2.684268e+06 2.343
11 regular 6 91 591 64 1.500000e+00 0.471 faster 1 2.684269e+06 2.684272e+06 2.914
11 regular 6 92 592 64 1.500000e+00 0.150 slower 0 2.684273e+06 2.684275e+06 2.380
11 regular 6 93 593 55 1.500000e+00 0.262 slower 1 2.684276e+06 2.684278e+06 2.220
11 regular 6 94 594 56 1.500000e+00 0.321 slower 1 2.684279e+06 2.684282e+06 2.455
11 regular 6 95 595 64 1.500000e+00 0.271 slower 0 2.684283e+06 2.684285e+06 2.365
11 regular 6 96 596 65 1.500000e+00 0.442 faster 1 2.684286e+06 2.684289e+06 2.571
11 regular 6 97 597 64 1.500000e+00 0.413 faster 1 2.684290e+06 2.684292e+06 2.439
11 regular 6 98 598 64 1.500000e+00 0.474 slower 0 2.684293e+06 2.684295e+06 2.101
11 regular 6 99 599 55 1.500000e+00 0.553 slower 1 2.684297e+06 2.684300e+06 2.366
11 regular 6 100 600 64 1.500000e+00 0.586 slower 0 2.684301e+06 2.684303e+06 2.414
11 irregular 7 1 601 65 2 0.373 slower 0 2.684342e+06 2.684346e+06 3.306
11 irregular 7 2 602 66 2 0.384 slower 0 2.684347e+06 2.684351e+06 4.110
11 irregular 7 3 603 53 2 0.139 slower 1 2.684352e+06 2.684355e+06 2.982
11 irregular 7 4 604 53 1.500000e+00 0.373 slower 1 2.684365e+06 2.684367e+06 2.330
11 irregular 7 5 605 66 2.500000e+00 0.568 slower 0 2.684373e+06 2.684377e+06 3.671
11 irregular 7 6 606 67 1.500000e+00 0.338 faster 1 2.684383e+06 2.684385e+06 2.499
11 irregular 7 7 607 67 2 0.245 faster 1 2.684390e+06 2.684394e+06 3.969
11 irregular 7 8 608 66 1.500000e+00 0.143 slower 0 2.684396e+06 2.684399e+06 2.741
11 irregular 7 9 609 67 2 0.477 none 2 2.684404e+06 2.684409e+06 4.999
11 irregular 7 10 610 53 1 0.268 none 2 2.684410e+06 2.684414e+06 3.999
11 irregular 7 11 611 67 1.500000e+00 0.436 slower 0 2.684415e+06 2.684419e+06 3.599
11 irregular 7 12 612 52 1.500000e+00 0.272 slower 1 2.684423e+06 2.684426e+06 2.694
11 irregular 7 13 613 68 2 0.172 slower 0 2.684432e+06 2.684436e+06 3.602
11 irregular 7 14 614 69 1.500000e+00 0.251 faster 1 2.684437e+06 2.684440e+06 3.256
11 irregular 7 15 615 52 2.500000e+00 0.108 slower 1 2.684445e+06 2.684449e+06 4.208
11 irregular 7 16 616 52 3 0.335 slower 1 2.684457e+06 2.684461e+06 4.010
11 irregular 7 17 617 67 3 0.296 slower 0 2.684468e+06 2.684472e+06 4.553
11 irregular 7 18 618 68 2 0.402 faster 1 2.684479e+06 2.684481e+06 2.870
11 irregular 7 19 619 68 3 0.363 faster 1 2.684483e+06 2.684487e+06 4.215
11 irregular 7 20 620 67 1 0.302 slower 0 2.684491e+06 2.684493e+06 2.315
11 irregular 7 21 621 52 3 0.119 slower 1 2.684494e+06 2.684500e+06 5.902
11 irregular 7 22 622 68 3 0.156 faster 1 2.684501e+06 2.684506e+06 5.118
11 irregular 7 23 623 67 2 0.292 slower 0 2.684507e+06 2.684511e+06 3.966
11 irregular 7 24 624 68 2.500000e+00 0.274 slower 0 2.684514e+06 2.684518e+06 4.423
11 irregular 7 25 625 69 2.500000e+00 0.496 faster 1 2.684523e+06 2.684527e+06 3.472
11 irregular 7 26 626 69 3 0.321 slower 0 2.684528e+06 2.684532e+06 4.295
11 irregular 7 27 627 50 1.500000e+00 0.246 slower 1 2.684533e+06 2.684536e+06 2.783
11 irregular 7 28 628 51 3 0.512 slower 1 2.684537e+06 2.684542e+06 4.222
11 irregular 7 29 629 69 2 0.448 faster 1 2.684543e+06 2.684545e+06 2.825
11 irregular 7 30 630 68 2.500000e+00 0.126 faster 1 2.684546e+06 2.684550e+06 3.692
11 irregular 7 31 631 68 3 0.533 slower 0 2.684551e+06 2.684557e+06 5.859
11 irregular 7 32 632 51 1 0.466 none 2 2.684558e+06 2.684562e+06 3.999
11 irregular 7 33 633 51 2 0.480 slower 1 2.684564e+06 2.684567e+06 3.208
11 irregular 7 34 634 68 1 0.369 none 2 2.684568e+06 2.684572e+06 4.000
11 irregular 7 35 635 52 3 0.426 slower 1 2.684573e+06 2.684577e+06 4.078
11 irregular 7 36 636 68 1 0.496 slower 0 2.684581e+06 2.684583e+06 2.735
11 irregular 7 37 637 51 2.500000e+00 0.562 none 2 2.684585e+06 2.684590e+06 5.500
11 irregular 7 38 638 51 1 0.553 slower 1 2.684591e+06 2.684593e+06 1.946
11 irregular 7 39 639 52 1 0.514 slower 1 2.684596e+06 2.684598e+06 2.037
11 irregular 7 40 640 52 3 0.589 faster 0 2.684600e+06 2.684604e+06 3.857
11 irregular 7 41 641 51 1.500000e+00 0.447 slower 1 2.684605e+06 2.684608e+06 2.628
11 irregular 7 42 642 52 2.500000e+00 0.582 faster 0 2.684609e+06 2.684613e+06 3.503
11 irregular 7 43 643 51 3 0.459 slower 1 2.684614e+06 2.684618e+06 3.938
11 irregular 7 44 644 69 1 0.501 slower 0 2.684619e+06 2.684622e+06 2.588
11 irregular 7 45 645 50 1.500000e+00 0.416 slower 1 2.684623e+06 2.684625e+06 2.188
11 irregular 7 46 646 51 1.500000e+00 0.273 slower 1 2.684626e+06 2.684629e+06 3.130
11 irregular 7 47 647 69 1 0.346 faster 1 2.684630e+06 2.684632e+06 1.713
11 irregular 7 48 648 68 2.500000e+00 0.180 faster 1 2.684633e+06 2.684636e+06 3.286
11 irregular 7 49 649 52 2 0.329 slower 1 2.684637e+06 2.684640e+06 2.732
11 irregular 7 50 650 67 3 0.187 faster 1 2.684641e+06 2.684645e+06 4.156
11 irregular 7 51 651 53 2 0.287 slower 1 2.684646e+06 2.684649e+06 2.794
11 irregular 7 52 652 66 3 0.293 slower 0 2.684650e+06 2.684655e+06 4.806
11 irregular 7 53 653 67 2 0.406 faster 1 2.684656e+06 2.684659e+06 3.093
11 irregular 7 54 654 53 2 0.102 faster 0 2.684660e+06 2.684664e+06 3.281
11 irregular 7 55 655 52 2.500000e+00 0.382 slower 1 2.684665e+06 2.684669e+06 4.358
11 irregular 7 56 656 53 1.500000e+00 0.276 slower 1 2.684670e+06 2.684673e+06 2.256
11 irregular 7 57 657 53 2 0.446 slower 1 2.684682e+06 2.684685e+06 2.757
11 irregular 7 58 658 54 1 0.235 slower 1 2.684686e+06 2.684688e+06 2.046
11 irregular 7 59 659 54 2 0.238 slower 1 2.684692e+06 2.684695e+06 3.015
11 irregular 7 60 660 65 1.500000e+00 0.383 slower 0 2.684696e+06 2.684699e+06 2.354
11 irregular 7 61 661 66 2.500000e+00 0.521 faster 1 2.684700e+06 2.684703e+06 3.518
11 irregular 7 62 662 54 3 0.487 slower 1 2.684705e+06 2.684709e+06 4.057
11 irregular 7 63 663 65 2.500000e+00 0.364 slower 0 2.684710e+06 2.684714e+06 4.008
11 irregular 7 64 664 54 2 0.498 slower 1 2.684715e+06 2.684720e+06 4.107
11 irregular 7 65 665 54 2.500000e+00 0.521 slower 1 2.684721e+06 2.684726e+06 5.057
11 irregular 7 66 666 65 1.500000e+00 0.598 faster 1 2.684736e+06 2.684738e+06 2.370
11 irregular 7 67 667 55 1 0.368 slower 1 2.684742e+06 2.684744e+06 1.784
11 irregular 7 68 668 64 1 0.418 faster 1 2.684745e+06 2.684747e+06 2.074
11 irregular 7 69 669 56 3 0.541 faster 0 2.684748e+06 2.684752e+06 4.139
11 irregular 7 70 670 65 2.500000e+00 0.118 faster 1 2.684755e+06 2.684759e+06 4.090
11 irregular 7 71 671 64 1.500000e+00 0.438 faster 1 2.684761e+06 2.684763e+06 2.805
11 irregular 7 72 672 56 3 0.129 slower 1 2.684765e+06 2.684769e+06 3.811
11 irregular 7 73 673 57 1 0.143 slower 1 2.684771e+06 2.684773e+06 2.049
11 irregular 7 74 674 63 3 0.177 faster 1 2.684774e+06 2.684778e+06 3.980
11 irregular 7 75 675 58 1 0.495 faster 0 2.684779e+06 2.684782e+06 2.302
11 irregular 7 76 676 57 1.500000e+00 0.575 slower 1 2.684783e+06 2.684786e+06 2.798
11 irregular 7 77 677 63 2 0.349 faster 1 2.684787e+06 2.684789e+06 2.832
11 irregular 7 78 678 58 2.500000e+00 0.230 faster 0 2.684790e+06 2.684794e+06 3.345
11 irregular 7 79 679 63 1.500000e+00 0.596 slower 0 2.684795e+06 2.684799e+06 4.217
11 irregular 7 80 680 56 2.500000e+00 0.102 slower 1 2.684800e+06 2.684804e+06 3.535
11 irregular 7 81 681 64 1 0.340 faster 1 2.684805e+06 2.684807e+06 2.137
11 irregular 7 82 682 57 2.500000e+00 0.436 slower 1 2.684808e+06 2.684813e+06 4.630
11 irregular 7 83 683 57 2 0.296 faster 0 2.684814e+06 2.684817e+06 2.765
11 irregular 7 84 684 56 1.500000e+00 0.210 faster 0 2.684818e+06 2.684820e+06 2.459
11 irregular 7 85 685 65 3 0.418 faster 1 2.684822e+06 2.684826e+06 4.388
11 irregular 7 86 686 64 1.500000e+00 0.430 slower 0 2.684827e+06 2.684829e+06 2.190
11 irregular 7 87 687 55 2 0.408 slower 1 2.684830e+06 2.684833e+06 2.932
11 irregular 7 88 688 65 1 0.132 faster 1 2.684835e+06 2.684837e+06 2.752
11 irregular 7 89 689 64 1.500000e+00 0.496 slower 0 2.684839e+06 2.684841e+06 2.320
11 irregular 7 90 690 65 1 0.389 slower 0 2.684843e+06 2.684845e+06 1.892
11 irregular 7 91 691 66 3 0.168 slower 0 2.684845e+06 2.684850e+06 4.160
11 irregular 7 92 692 67 2.500000e+00 0.597 faster 1 2.684851e+06 2.684855e+06 3.807
11 irregular 7 93 693 53 2.500000e+00 0.190 slower 1 2.684859e+06 2.684863e+06 3.506
11 irregular 7 94 694 54 2.500000e+00 0.524 slower 1 2.684864e+06 2.684869e+06 4.544
11 irregular 7 95 695 54 1.500000e+00 0.485 faster 0 2.684870e+06 2.684872e+06 2.449
11 irregular 7 96 696 53 1 0.248 faster 0 2.684873e+06 2.684875e+06 1.860
11 irregular 7 97 697 68 1 0.220 faster 1 2.684876e+06 2.684879e+06 2.658
11 irregular 7 98 698 53 3 0.113 slower 1 2.684879e+06 2.684884e+06 4.280
11 irregular 7 99 699 53 1 0.123 slower 1 2.684885e+06 2.684886e+06 1.797
11 irregular 7 100 700 66 2.500000e+00 0.501 faster 1 2.684889e+06 2.684892e+06 3.511
11 regular 8 1 701 54 2.500000e+00 0.217 faster 0 2.684982e+06 2.684987e+06 4.343
11 regular 8 2 702 67 2.500000e+00 0.238 faster 1 2.684988e+06 2.684991e+06 3.581
11 regular 8 3 703 54 2.500000e+00 0.378 slower 1 2.684992e+06 2.684995e+06 3.189
11 regular 8 4 704 54 2.500000e+00 0.130 slower 1 2.684996e+06 2.684999e+06 3.252
11 regular 8 5 705 65 2.500000e+00 0.196 faster 1 2.685000e+06 2.685004e+06 4.154
11 regular 8 6 706 65 2.500000e+00 0.519 slower 0 2.685006e+06 2.685009e+06 3.262
11 regular 8 7 707 54 2.500000e+00 0.346 slower 1 2.685010e+06 2.685013e+06 3.374
11 regular 8 8 708 65 2.500000e+00 0.579 slower 0 2.685014e+06 2.685019e+06 4.254
11 regular 8 9 709 66 2.500000e+00 0.111 faster 1 2.685019e+06 2.685023e+06 3.267
11 regular 8 10 710 66 2.500000e+00 0.584 faster 1 2.685024e+06 2.685027e+06 3.402
11 regular 8 11 711 65 2.500000e+00 0.379 faster 1 2.685028e+06 2.685033e+06 4.347
11 regular 8 12 712 65 2.500000e+00 0.123 faster 1 2.685033e+06 2.685037e+06 3.509
11 regular 8 13 713 56 2.500000e+00 0.397 slower 1 2.685038e+06 2.685041e+06 3.248
11 regular 8 14 714 64 2.500000e+00 0.527 faster 1 2.685042e+06 2.685046e+06 3.251
11 regular 8 15 715 63 2.500000e+00 0.179 faster 1 2.685046e+06 2.685051e+06 4.431
11 regular 8 16 716 57 2.500000e+00 0.335 faster 0 2.685052e+06 2.685056e+06 3.956
11 regular 8 17 717 64 2.500000e+00 0.274 faster 1 2.685057e+06 2.685060e+06 3.448
11 regular 8 18 718 57 2.500000e+00 0.231 slower 1 2.685061e+06 2.685064e+06 3.343
11 regular 8 19 719 57 2.500000e+00 0.420 slower 1 2.685065e+06 2.685069e+06 3.591
11 regular 8 20 720 58 2.500000e+00 0.341 slower 1 2.685070e+06 2.685074e+06 4.042
11 regular 8 21 721 62 2.500000e+00 0.507 faster 1 2.685075e+06 2.685079e+06 4.224
11 regular 8 22 722 59 2.500000e+00 0.148 slower 1 2.685080e+06 2.685084e+06 3.409
11 regular 8 23 723 59 2.500000e+00 0.258 faster 0 2.685084e+06 2.685088e+06 3.500
11 regular 8 24 724 58 2.500000e+00 0.107 faster 0 2.685089e+06 2.685092e+06 3.638
11 regular 8 25 725 57 2.500000e+00 0.276 faster 0 2.685094e+06 2.685098e+06 4.207
11 regular 8 26 726 64 2.500000e+00 0.136 slower 0 2.685099e+06 2.685102e+06 3.221
11 regular 8 27 727 65 2.500000e+00 0.450 faster 1 2.685104e+06 2.685107e+06 3.318
11 regular 8 28 728 64 2.500000e+00 0.290 slower 0 2.685108e+06 2.685112e+06 3.573
11 regular 8 29 729 55 2.500000e+00 0.111 faster 0 2.685113e+06 2.685117e+06 3.512
11 regular 8 30 730 66 2.500000e+00 0.532 slower 0 2.685118e+06 2.685122e+06 4.600
11 regular 8 31 731 53 2.500000e+00 0.303 slower 1 2.685123e+06 2.685127e+06 3.957
11 regular 8 32 732 53 2.500000e+00 0.393 faster 0 2.685128e+06 2.685132e+06 3.475
11 regular 8 33 733 52 2.500000e+00 0.117 slower 1 2.685133e+06 2.685136e+06 3.310
11 regular 8 34 734 67 2.500000e+00 0.167 faster 1 2.685137e+06 2.685141e+06 3.700
11 regular 8 35 735 67 2.500000e+00 0.435 faster 1 2.685142e+06 2.685146e+06 3.424
11 regular 8 36 736 66 2.500000e+00 0.429 slower 0 2.685147e+06 2.685150e+06 3.354
11 regular 8 37 737 67 2.500000e+00 0.261 slower 0 2.685152e+06 2.685155e+06 3.387
11 regular 8 38 738 68 2.500000e+00 0.278 faster 1 2.685156e+06 2.685160e+06 3.510
11 regular 8 39 739 68 2.500000e+00 0.185 slower 0 2.685161e+06 2.685165e+06 3.415
11 regular 8 40 740 51 2.500000e+00 0.270 none 2 2.685166e+06 2.685171e+06 5.499
11 regular 8 41 741 51 2.500000e+00 0.309 slower 1 2.685172e+06 2.685176e+06 3.622
11 regular 8 42 742 68 2.500000e+00 0.470 slower 0 2.685178e+06 2.685181e+06 3.298
11 regular 8 43 743 51 2.500000e+00 0.129 faster 0 2.685182e+06 2.685185e+06 3.430
11 regular 8 44 744 50 2.500000e+00 0.111 faster 0 2.685186e+06 2.685190e+06 3.326
11 regular 8 45 745 71 2.500000e+00 0.379 faster 1 2.685191e+06 2.685196e+06 4.129
11 regular 8 46 746 49 2.500000e+00 0.547 slower 1 2.685197e+06 2.685200e+06 3.337
11 regular 8 47 747 70 2.500000e+00 0.451 faster 1 2.685201e+06 2.685205e+06 3.827
11 regular 8 48 748 70 2.500000e+00 0.175 slower 0 2.685209e+06 2.685213e+06 3.927
11 regular 8 49 749 49 2.500000e+00 0.497 faster 0 2.685215e+06 2.685218e+06 3.418
11 regular 8 50 750 72 2.500000e+00 0.141 slower 0 2.685219e+06 2.685223e+06 3.901
11 regular 8 51 751 47 2.500000e+00 0.429 slower 1 2.685224e+06 2.685228e+06 3.812
11 regular 8 52 752 72 2.500000e+00 0.147 faster 1 2.685229e+06 2.685233e+06 4.121
11 regular 8 53 753 48 2.500000e+00 0.364 slower 1 2.685235e+06 2.685239e+06 3.641
11 regular 8 54 754 49 2.500000e+00 0.241 faster 0 2.685240e+06 2.685244e+06 3.932
11 regular 8 55 755 48 2.500000e+00 0.190 slower 1 2.685246e+06 2.685250e+06 3.329
11 regular 8 56 756 72 2.500000e+00 0.575 faster 1 2.685251e+06 2.685255e+06 3.382
11 regular 8 57 757 71 2.500000e+00 0.113 slower 0 2.685255e+06 2.685260e+06 4.413
11 regular 8 58 758 72 2.500000e+00 0.204 faster 1 2.685261e+06 2.685264e+06 3.451
11 regular 8 59 759 48 2.500000e+00 0.286 slower 1 2.685267e+06 2.685271e+06 3.518
11 regular 8 60 760 71 2.500000e+00 0.210 faster 1 2.685273e+06 2.685276e+06 3.345
11 regular 8 61 761 49 2.500000e+00 0.495 faster 0 2.685279e+06 2.685282e+06 3.516
11 regular 8 62 762 72 2.500000e+00 0.228 faster 1 2.685283e+06 2.685286e+06 3.397
11 regular 8 63 763 49 2.500000e+00 0.512 slower 1 2.685288e+06 2.685291e+06 3.389
11 regular 8 64 764 49 2.500000e+00 0.260 slower 1 2.685292e+06 2.685295e+06 3.287
11 regular 8 65 765 50 2.500000e+00 0.393 slower 1 2.685296e+06 2.685300e+06 3.352
11 regular 8 66 766 70 2.500000e+00 0.547 faster 1 2.685301e+06 2.685305e+06 3.391
11 regular 8 67 767 51 2.500000e+00 0.504 slower 1 2.685306e+06 2.685309e+06 3.439
11 regular 8 68 768 51 2.500000e+00 0.389 slower 1 2.685310e+06 2.685314e+06 3.244
11 regular 8 69 769 52 2.500000e+00 0.500 slower 1 2.685318e+06 2.685322e+06 3.312
11 regular 8 70 770 68 2.500000e+00 0.463 slower 0 2.685324e+06 2.685328e+06 3.394
11 regular 8 71 771 51 2.500000e+00 0.581 faster 0 2.685329e+06 2.685332e+06 3.574
11 regular 8 72 772 70 2.500000e+00 0.593 slower 0 2.685334e+06 2.685337e+06 3.661
11 regular 8 73 773 49 2.500000e+00 0.318 slower 1 2.685340e+06 2.685344e+06 4.213
11 regular 8 74 774 50 2.500000e+00 0.233 slower 1 2.685345e+06 2.685349e+06 3.755
11 regular 8 75 775 50 2.500000e+00 0.324 slower 1 2.685356e+06 2.685359e+06 3.271
11 regular 8 76 776 51 2.500000e+00 0.545 faster 0 2.685368e+06 2.685373e+06 4.340
11 regular 8 77 777 50 2.500000e+00 0.228 faster 0 2.685374e+06 2.685377e+06 3.784
11 regular 8 78 778 71 2.500000e+00 0.211 none 2 2.685380e+06 2.685386e+06 5.499
11 regular 8 79 779 49 2.500000e+00 0.279 slower 1 2.685388e+06 2.685391e+06 3.758
11 regular 8 80 780 49 2.500000e+00 0.142 faster 0 2.685394e+06 2.685397e+06 3.375
11 regular 8 81 781 72 2.500000e+00 0.528 slower 0 2.685405e+06 2.685409e+06 3.412
11 regular 8 82 782 47 2.500000e+00 0.413 slower 1 2.685411e+06 2.685414e+06 3.181
11 regular 8 83 783 72 2.500000e+00 0.517 faster 1 2.685416e+06 2.685419e+06 3.222
11 regular 8 84 784 48 2.500000e+00 0.404 slower 1 2.685424e+06 2.685428e+06 4.045
11 regular 8 85 785 71 2.500000e+00 0.325 faster 1 2.685429e+06 2.685432e+06 3.204
11 regular 8 86 786 71 2.500000e+00 0.346 none 2 2.685435e+06 2.685441e+06 5.499
11 regular 8 87 787 49 2.500000e+00 0.397 slower 1 2.685442e+06 2.685445e+06 3.713
11 regular 8 88 788 70 2.500000e+00 0.344 slower 0 2.685470e+06 2.685473e+06 3.333
11 regular 8 89 789 49 2.500000e+00 0.138 faster 0 2.685474e+06 2.685477e+06 3.532
11 regular 8 90 790 72 2.500000e+00 0.449 faster 1 2.685478e+06 2.685482e+06 3.529
11 regular 8 91 791 72 2.500000e+00 0.111 faster 1 2.685483e+06 2.685486e+06 3.460
11 regular 8 92 792 71 2.500000e+00 0.288 faster 1 2.685487e+06 2.685490e+06 3.245
11 regular 8 93 793 71 2.500000e+00 0.325 faster 1 2.685491e+06 2.685494e+06 3.137
11 regular 8 94 794 70 2.500000e+00 0.584 faster 1 2.685496e+06 2.685499e+06 3.221
11 regular 8 95 795 50 2.500000e+00 0.354 faster 0 2.685500e+06 2.685504e+06 3.842
11 regular 8 96 796 49 2.500000e+00 0.192 slower 1 2.685505e+06 2.685509e+06 3.947
11 regular 8 97 797 70 2.500000e+00 0.481 faster 1 2.685512e+06 2.685515e+06 3.290
11 regular 8 98 798 50 2.500000e+00 0.425 faster 0 2.685517e+06 2.685520e+06 3.545
11 regular 8 99 799 71 2.500000e+00 0.204 faster 1 2.685521e+06 2.685525e+06 3.477
11 regular 8 100 800 70 2.500000e+00 0.123 faster 1 2.685526e+06 2.685529e+06 3.295
11 irregular 9 1 801 50 3 0.218 slower 1 2.685658e+06 2.685662e+06 3.840
11 irregular 9 2 802 69 1.500000e+00 0.545 faster 1 2.685663e+06 2.685666e+06 2.395
11 irregular 9 3 803 69 3 0.389 faster 1 2.685667e+06 2.685671e+06 3.904
11 irregular 9 4 804 52 1 0.312 slower 1 2.685672e+06 2.685674e+06 2.148
11 irregular 9 5 805 52 2.500000e+00 0.493 slower 1 2.685675e+06 2.685678e+06 3.440
11 irregular 9 6 806 53 2 0.266 faster 0 2.685679e+06 2.685682e+06 2.680
11 irregular 9 7 807 68 2.500000e+00 0.136 faster 1 2.685683e+06 2.685686e+06 3.155
11 irregular 9 8 808 68 2 0.582 faster 1 2.685687e+06 2.685690e+06 2.606
11 irregular 9 9 809 67 1 0.236 faster 1 2.685691e+06 2.685692e+06 1.599
11 irregular 9 10 810 53 2 0.364 faster 0 2.685693e+06 2.685696e+06 2.756
11 irregular 9 11 811 52 1 0.142 slower 1 2.685697e+06 2.685699e+06 2.218
11 irregular 9 12 812 67 1 0.288 slower 0 2.685700e+06 2.685702e+06 2.275
11 irregular 9 13 813 52 3 0.239 faster 0 2.685703e+06 2.685708e+06 4.826
11 irregular 9 14 814 51 1.500000e+00 0.244 slower 1 2.685709e+06 2.685711e+06 2.269
11 irregular 9 15 815 69 1 0.251 faster 1 2.685714e+06 2.685716e+06 1.945
11 irregular 9 16 816 68 3 0.105 faster 1 2.685719e+06 2.685723e+06 4.124
11 irregular 9 17 817 52 2.500000e+00 0.396 slower 1 2.685725e+06 2.685729e+06 3.477
11 irregular 9 18 818 67 2.500000e+00 0.486 faster 1 2.685730e+06 2.685734e+06 3.612
11 irregular 9 19 819 53 2.500000e+00 0.290 faster 0 2.685735e+06 2.685738e+06 3.380
11 irregular 9 20 820 52 1 0.201 faster 0 2.685739e+06 2.685741e+06 2.524
11 irregular 9 21 821 69 3 0.327 faster 1 2.685742e+06 2.685746e+06 3.888
11 irregular 9 22 822 68 1.500000e+00 0.314 faster 1 2.685747e+06 2.685750e+06 2.908
11 irregular 9 23 823 68 2.500000e+00 0.367 slower 0 2.685751e+06 2.685755e+06 4.159
11 irregular 9 24 824 69 3 0.314 slower 0 2.685756e+06 2.685760e+06 3.859
11 irregular 9 25 825 70 1 0.113 faster 1 2.685761e+06 2.685764e+06 3.517
11 irregular 9 26 826 69 1 0.155 faster 1 2.685765e+06 2.685767e+06 2.055
11 irregular 9 27 827 69 2 0.226 faster 1 2.685770e+06 2.685774e+06 3.397
11 irregular 9 28 828 68 2.500000e+00 0.113 faster 1 2.685775e+06 2.685778e+06 3.169
11 irregular 9 29 829 52 2 0.150 faster 0 2.685779e+06 2.685782e+06 3.012
11 irregular 9 30 830 51 1.500000e+00 0.257 faster 0 2.685783e+06 2.685785e+06 2.553
11 irregular 9 31 831 50 1.500000e+00 0.580 slower 1 2.685786e+06 2.685789e+06 2.287
11 irregular 9 32 832 51 1.500000e+00 0.368 faster 0 2.685790e+06 2.685792e+06 2.403
11 irregular 9 33 833 50 1.500000e+00 0.401 faster 0 2.685793e+06 2.685795e+06 2.364
11 irregular 9 34 834 49 1 0.425 slower 1 2.685797e+06 2.685798e+06 1.853
11 irregular 9 35 835 71 2.500000e+00 0.340 slower 0 2.685799e+06 2.685803e+06 3.462
11 irregular 9 36 836 72 2.500000e+00 0.532 faster 1 2.685804e+06 2.685807e+06 3.252
11 irregular 9 37 837 71 2.500000e+00 0.420 faster 1 2.685809e+06 2.685813e+06 3.895
11 irregular 9 38 838 49 3 0.599 slower 1 2.685814e+06 2.685818e+06 3.714
11 irregular 9 39 839 50 1 0.499 faster 0 2.685819e+06 2.685821e+06 2.010
11 irregular 9 40 840 49 3 0.595 slower 1 2.685822e+06 2.685826e+06 3.767
11 irregular 9 41 841 71 2.500000e+00 0.234 faster 1 2.685827e+06 2.685831e+06 3.480
11 irregular 9 42 842 70 2 0.166 faster 1 2.685831e+06 2.685834e+06 2.725
11 irregular 9 43 843 50 2.500000e+00 0.460 faster 0 2.685835e+06 2.685839e+06 3.542
11 irregular 9 44 844 71 1 0.253 faster 1 2.685840e+06 2.685842e+06 2.322
11 irregular 9 45 845 50 2.500000e+00 0.387 slower 1 2.685843e+06 2.685846e+06 3.136
11 irregular 9 46 846 50 3 0.182 slower 1 2.685847e+06 2.685851e+06 3.688
11 irregular 9 47 847 51 1.500000e+00 0.226 none 2 2.685852e+06 2.685857e+06 4.499
11 irregular 9 48 848 51 3 0.266 faster 0 2.685858e+06 2.685862e+06 3.819
11 irregular 9 49 849 50 1.500000e+00 0.338 faster 0 2.685863e+06 2.685865e+06 2.363
11 irregular 9 50 850 49 2.500000e+00 0.430 faster 0 2.685866e+06 2.685870e+06 3.718
11 irregular 9 51 851 72 1.500000e+00 0.308 faster 1 2.685871e+06 2.685873e+06 2.384
11 irregular 9 52 852 72 1.500000e+00 0.271 slower 0 2.685875e+06 2.685877e+06 2.172
11 irregular 9 53 853 73 2 0.226 faster 1 2.685879e+06 2.685881e+06 2.675
11 irregular 9 54 854 48 2 0.102 slower 1 2.685884e+06 2.685886e+06 2.888
11 irregular 9 55 855 72 3 0.275 faster 1 2.685887e+06 2.685891e+06 3.816
11 irregular 9 56 856 49 3 0.389 faster 0 2.685893e+06 2.685897e+06 3.890
11 irregular 9 57 857 48 3 0.434 slower 1 2.685898e+06 2.685902e+06 3.954
11 irregular 9 58 858 72 2 0.588 faster 1 2.685904e+06 2.685907e+06 2.764
11 irregular 9 59 859 49 1.500000e+00 0.265 slower 1 2.685908e+06 2.685910e+06 2.600
11 irregular 9 60 860 71 3 0.571 faster 1 2.685912e+06 2.685916e+06 3.866
11 irregular 9 61 861 50 2 0.141 slower 1 2.685917e+06 2.685920e+06 2.990
11 irregular 9 62 862 50 2 0.396 none 2 2.685922e+06 2.685927e+06 5.000
11 irregular 9 63 863 70 1.500000e+00 0.214 slower 0 2.685928e+06 2.685930e+06 2.461
11 irregular 9 64 864 71 1 0.585 slower 0 2.685932e+06 2.685934e+06 1.902
11 irregular 9 65 865 72 1 0.396 faster 1 2.685935e+06 2.685937e+06 1.984
11 irregular 9 66 866 71 3 0.358 slower 0 2.685938e+06 2.685943e+06 5.326
11 irregular 9 67 867 48 3 0.591 slower 1 2.685944e+06 2.685948e+06 3.783
11 irregular 9 68 868 48 2 0.248 slower 1 2.685951e+06 2.685953e+06 2.673
11 irregular 9 69 869 71 3 0.216 faster 1 2.685954e+06 2.685958e+06 3.802
11 irregular 9 70 870 49 1 0.247 faster 0 2.685959e+06 2.685961e+06 1.836
11 irregular 9 71 871 48 2.500000e+00 0.156 slower 1 2.685962e+06 2.685965e+06 3.163
11 irregular 9 72 872 49 2.500000e+00 0.366 slower 1 2.685967e+06 2.685970e+06 3.296
11 irregular 9 73 873 71 3 0.165 faster 1 2.685972e+06 2.685975e+06 3.843
11 irregular 9 74 874 70 2 0.596 faster 1 2.685977e+06 2.685979e+06 2.670
11 irregular 9 75 875 70 1.500000e+00 0.428 faster 1 2.685980e+06 2.685983e+06 2.502
11 irregular 9 76 876 69 2 0.538 faster 1 2.685984e+06 2.685987e+06 3.001
11 irregular 9 77 877 69 1.500000e+00 0.195 faster 1 2.685988e+06 2.685990e+06 2.250
11 irregular 9 78 878 68 3 0.401 faster 1 2.685991e+06 2.685996e+06 4.610
11 irregular 9 79 879 68 2.500000e+00 0.106 slower 0 2.685997e+06 2.686000e+06 3.253
11 irregular 9 80 880 69 1 0.518 slower 0 2.686001e+06 2.686003e+06 1.737
11 irregular 9 81 881 50 1 0.498 slower 1 2.686004e+06 2.686007e+06 2.482
11 irregular 9 82 882 51 3 0.123 faster 0 2.686007e+06 2.686011e+06 3.938
11 irregular 9 83 883 70 2 0.414 none 2 2.686013e+06 2.686018e+06 4.999
11 irregular 9 84 884 50 1 0.400 slower 1 2.686019e+06 2.686021e+06 1.829
11 irregular 9 85 885 50 1.500000e+00 0.402 faster 0 2.686022e+06 2.686024e+06 2.434
11 irregular 9 86 886 71 1 0.257 faster 1 2.686025e+06 2.686027e+06 1.627
11 irregular 9 87 887 70 1.500000e+00 0.133 faster 1 2.686028e+06 2.686030e+06 2.345
11 irregular 9 88 888 50 2 0.586 slower 1 2.686032e+06 2.686035e+06 2.975
11 irregular 9 89 889 51 2 0.279 slower 1 2.686036e+06 2.686038e+06 2.873
11 irregular 9 90 890 51 1.500000e+00 0.504 faster 0 2.686040e+06 2.686043e+06 3.076
11 irregular 9 91 891 70 1.500000e+00 0.568 faster 1 2.686045e+06 2.686047e+06 2.284
11 irregular 9 92 892 51 1 0.284 none 2 2.686048e+06 2.686052e+06 4.000
11 irregular 9 93 893 69 2.500000e+00 0.208 faster 1 2.686055e+06 2.686059e+06 3.520
11 irregular 9 94 894 69 2 0.488 slower 0 2.686060e+06 2.686063e+06 3.014
11 irregular 9 95 895 50 2.500000e+00 0.260 slower 1 2.686068e+06 2.686072e+06 3.437
11 irregular 9 96 896 51 2 0.598 slower 1 2.686073e+06 2.686076e+06 2.416
11 irregular 9 97 897 51 1 0.448 faster 0 2.686077e+06 2.686079e+06 1.798
11 irregular 9 98 898 70 2 0.267 slower 0 2.686079e+06 2.686082e+06 2.701
11 irregular 9 99 899 71 1.500000e+00 0.536 faster 1 2.686084e+06 2.686086e+06 2.152
11 irregular 9 100 900 50 2.500000e+00 0.308 none 2 2.686088e+06 2.686093e+06 5.500
11 regular 10 1 901 70 2 0.489 faster 1 2.686170e+06 2.686173e+06 2.745
11 regular 10 2 902 70 2 0.462 faster 1 2.686174e+06 2.686177e+06 2.695
11 regular 10 3 903 69 2 0.365 faster 1 2.686178e+06 2.686181e+06 2.878
11 regular 10 4 904 69 2 0.242 faster 1 2.686182e+06 2.686185e+06 3.588
11 regular 10 5 905 52 2 0.164 faster 0 2.686186e+06 2.686189e+06 3.025
11 regular 10 6 906 69 2 0.560 slower 0 2.686190e+06 2.686193e+06 2.959
11 regular 10 7 907 70 2 0.309 faster 1 2.686195e+06 2.686198e+06 2.840
11 regular 10 8 908 50 2 0.505 faster 0 2.686199e+06 2.686202e+06 2.761
11 regular 10 9 909 71 2 0.558 faster 1 2.686203e+06 2.686206e+06 2.710
11 regular 10 10 910 70 2 0.263 faster 1 2.686207e+06 2.686211e+06 3.458
11 regular 10 11 911 50 2 0.156 faster 0 2.686211e+06 2.686214e+06 3.040
11 regular 10 12 912 49 2 0.463 faster 0 2.686216e+06 2.686218e+06 2.943
11 regular 10 13 913 48 2 0.143 slower 1 2.686219e+06 2.686222e+06 2.819
11 regular 10 14 914 71 2 0.391 slower 0 2.686223e+06 2.686226e+06 2.941
11 regular 10 15 915 48 2 0.473 slower 1 2.686227e+06 2.686230e+06 2.653
11 regular 10 16 916 72 2 0.468 faster 1 2.686231e+06 2.686234e+06 2.813
11 regular 10 17 917 49 2 0.554 slower 1 2.686235e+06 2.686238e+06 2.812
11 regular 10 18 918 71 2 0.165 slower 0 2.686238e+06 2.686241e+06 2.672
11 regular 10 19 919 72 2 0.231 slower 0 2.686243e+06 2.686245e+06 2.651
11 regular 10 20 920 73 2 0.317 faster 1 2.686246e+06 2.686249e+06 2.728
11 regular 10 21 921 72 2 0.523 slower 0 2.686250e+06 2.686253e+06 2.725
11 regular 10 22 922 47 2 0.261 slower 1 2.686254e+06 2.686256e+06 2.547
11 regular 10 23 923 47 2 0.493 slower 1 2.686258e+06 2.686260e+06 2.783
11 regular 10 24 924 72 2 0.571 faster 1 2.686262e+06 2.686264e+06 2.694
11 regular 10 25 925 48 2 0.505 slower 1 2.686265e+06 2.686269e+06 3.888
11 regular 10 26 926 49 2 0.528 slower 1 2.686270e+06 2.686273e+06 2.716
11 regular 10 27 927 49 2 0.478 slower 1 2.686274e+06 2.686277e+06 2.697
11 regular 10 28 928 50 2 0.337 slower 1 2.686278e+06 2.686281e+06 3.485
11 regular 10 29 929 70 2 0.457 faster 1 2.686283e+06 2.686285e+06 2.819
11 regular 10 30 930 69 2 0.477 faster 1 2.686286e+06 2.686289e+06 2.678
11 regular 10 31 931 51 2 0.405 faster 0 2.686290e+06 2.686293e+06 3.025
11 regular 10 32 932 50 2 0.164 slower 1 2.686294e+06 2.686297e+06 2.708
11 regular 10 33 933 51 2 0.280 faster 0 2.686298e+06 2.686300e+06 2.712
11 regular 10 34 934 50 2 0.252 faster 0 2.686301e+06 2.686305e+06 3.315
11 regular 10 35 935 49 2 0.541 slower 1 2.686306e+06 2.686309e+06 2.826
11 regular 10 36 936 71 2 0.237 faster 1 2.686310e+06 2.686313e+06 3.172
11 regular 10 37 937 70 2 0.198 faster 1 2.686314e+06 2.686317e+06 3.050
11 regular 10 38 938 70 2 0.385 faster 1 2.686318e+06 2.686321e+06 2.806
11 regular 10 39 939 69 2 0.558 faster 1 2.686322e+06 2.686325e+06 2.881
11 regular 10 40 940 51 2 0.473 faster 0 2.686326e+06 2.686328e+06 2.709
11 regular 10 41 941 70 2 0.316 faster 1 2.686329e+06 2.686332e+06 2.953
11 regular 10 42 942 51 2 0.245 faster 0 2.686333e+06 2.686336e+06 2.947
11 regular 10 43 943 70 2 0.323 slower 0 2.686337e+06 2.686340e+06 2.728
11 regular 10 44 944 49 2 0.403 slower 1 2.686341e+06 2.686344e+06 2.781
11 regular 10 45 945 71 2 0.276 slower 0 2.686345e+06 2.686348e+06 3.205
11 regular 10 46 946 48 2 0.438 slower 1 2.686349e+06 2.686352e+06 2.896
11 regular 10 47 947 71 2 0.201 slower 0 2.686353e+06 2.686355e+06 2.831
11 regular 10 48 948 72 2 0.152 faster 1 2.686356e+06 2.686359e+06 2.731
11 regular 10 49 949 48 2 0.187 slower 1 2.686360e+06 2.686363e+06 2.942
11 regular 10 50 950 49 2 0.422 faster 0 2.686364e+06 2.686367e+06 2.959
11 regular 10 51 951 48 2 0.545 slower 1 2.686368e+06 2.686371e+06 2.849
11 regular 10 52 952 48 2 0.322 slower 1 2.686372e+06 2.686374e+06 2.605
11 regular 10 53 953 71 2 0.579 faster 1 2.686376e+06 2.686378e+06 2.629
11 regular 10 54 954 71 2 0.327 faster 1 2.686379e+06 2.686382e+06 2.787
11 regular 10 55 955 70 2 0.411 faster 1 2.686383e+06 2.686386e+06 2.704
11 regular 10 56 956 50 2 0.291 faster 0 2.686387e+06 2.686389e+06 2.786
11 regular 10 57 957 71 2 0.389 faster 1 2.686390e+06 2.686393e+06 2.987
11 regular 10 58 958 50 2 0.300 slower 1 2.686394e+06 2.686397e+06 2.848
11 regular 10 59 959 50 2 0.170 slower 1 2.686398e+06 2.686401e+06 2.883
11 regular 10 60 960 69 2 0.457 faster 1 2.686402e+06 2.686405e+06 2.956
11 regular 10 61 961 69 2 0.514 slower 0 2.686406e+06 2.686409e+06 2.857
11 regular 10 62 962 50 2 0.498 slower 1 2.686410e+06 2.686413e+06 2.921
11 regular 10 63 963 51 2 0.218 slower 1 2.686414e+06 2.686417e+06 2.688
11 regular 10 64 964 51 2 0.424 faster 0 2.686418e+06 2.686420e+06 2.082
11 regular 10 65 965 70 2 0.114 faster 1 2.686420e+06 2.686424e+06 3.145
11 regular 10 66 966 51 2 0.346 slower 1 2.686425e+06 2.686427e+06 2.795
11 regular 10 67 967 51 2 0.180 slower 1 2.686428e+06 2.686431e+06 2.636
11 regular 10 68 968 68 2 0.331 faster 1 2.686432e+06 2.686434e+06 2.667
11 regular 10 69 969 52 2 0.408 faster 0 2.686435e+06 2.686438e+06 2.719
11 regular 10 70 970 51 2 0.220 slower 1 2.686439e+06 2.686442e+06 2.802
11 regular 10 71 971 52 2 0.171 slower 1 2.686443e+06 2.686446e+06 3.131
11 regular 10 72 972 68 2 0.120 slower 0 2.686447e+06 2.686449e+06 2.806
11 regular 10 73 973 69 2 0.516 faster 1 2.686451e+06 2.686453e+06 2.690
11 regular 10 74 974 52 2 0.239 faster 0 2.686454e+06 2.686458e+06 4.015
11 regular 10 75 975 69 2 0.176 slower 0 2.686459e+06 2.686462e+06 2.786
11 regular 10 76 976 50 2 0.350 slower 1 2.686463e+06 2.686466e+06 2.811
11 regular 10 77 977 50 2 0.392 slower 1 2.686467e+06 2.686469e+06 2.769
11 regular 10 78 978 51 2 0.143 none 2 2.686470e+06 2.686475e+06 5.000
11 regular 10 79 979 69 2 0.588 faster 1 2.686476e+06 2.686479e+06 2.822
11 regular 10 80 980 51 2 0.406 slower 1 2.686480e+06 2.686483e+06 2.767
11 regular 10 81 981 52 2 0.571 slower 1 2.686484e+06 2.686487e+06 2.837
11 regular 10 82 982 52 2 0.226 slower 1 2.686488e+06 2.686491e+06 2.706
11 regular 10 83 983 53 2 0.430 faster 0 2.686492e+06 2.686495e+06 3.155
11 regular 10 84 984 68 2 0.305 faster 1 2.686496e+06 2.686499e+06 2.918
11 regular 10 85 985 68 2 0.253 slower 0 2.686500e+06 2.686502e+06 2.659
11 regular 10 86 986 51 2 0.305 faster 0 2.686503e+06 2.686506e+06 2.768
11 regular 10 87 987 50 2 0.327 slower 1 2.686507e+06 2.686510e+06 2.737
11 regular 10 88 988 69 2 0.354 faster 1 2.686511e+06 2.686514e+06 3.336
11 regular 10 89 989 69 2 0.344 faster 1 2.686515e+06 2.686518e+06 2.921
11 regular 10 90 990 52 2 0.147 faster 0 2.686519e+06 2.686522e+06 2.882
11 regular 10 91 991 69 2 0.416 faster 1 2.686523e+06 2.686525e+06 2.830
11 regular 10 92 992 69 2 0.265 faster 1 2.686526e+06 2.686530e+06 3.207
11 regular 10 93 993 68 2 0.177 faster 1 2.686530e+06 2.686533e+06 2.790
11 regular 10 94 994 68 2 0.196 faster 1 2.686534e+06 2.686538e+06 3.973
11 regular 10 95 995 53 2 0.488 slower 1 2.686539e+06 2.686542e+06 2.658
11 regular 10 96 996 53 2 0.367 slower 1 2.686543e+06 2.686545e+06 2.682
11 regular 10 97 997 66 2 0.427 slower 0 2.686547e+06 2.686550e+06 3.319
11 regular 10 98 998 67 2 0.388 faster 1 2.686551e+06 2.686554e+06 3.004
11 regular 10 99 999 67 2 0.335 slower 0 2.686555e+06 2.686558e+06 2.741
11 regular 10 100 1000 68 2 0.427 faster 1 2.686559e+06 2.686562e+06 2.966
