subNo condition blockNo trialNo trialID currentFrequency cueTargetInterval randomPreCueInterval response responseAccuracy startTime responseTime RT
28 regular 1 1 1 53 2 0.358 slower 1 1.803383e+06 1.803386e+06 2.838
28 regular 1 2 2 53 2 0.196 slower 1 1.803387e+06 1.803389e+06 2.553
28 regular 1 3 3 55 2 0.276 faster 0 1.803390e+06 1.803393e+06 2.592
28 regular 1 4 4 67 2 0.402 faster 1 1.803394e+06 1.803397e+06 2.670
28 regular 1 5 5 67 2 0.243 faster 1 1.803398e+06 1.803402e+06 3.688
28 regular 1 6 6 55 2 0.562 slower 1 1.803403e+06 1.803406e+06 2.856
28 regular 1 7 7 55 2 0.331 slower 1 1.803407e+06 1.803410e+06 2.671
28 regular 1 8 8 63 2 0.253 slower 0 1.803411e+06 1.803414e+06 2.692
28 regular 1 9 9 55 2 0.134 slower 1 1.803414e+06 1.803417e+06 2.636
28 regular 1 10 10 65 2 0.410 slower 0 1.803418e+06 1.803421e+06 2.733
28 regular 1 11 11 53 2 0.217 slower 1 1.803422e+06 1.803424e+06 2.568
28 regular 1 12 12 65 2 0.267 slower 0 1.803426e+06 1.803429e+06 3.000
28 regular 1 13 13 66 2 0.432 slower 0 1.803430e+06 1.803433e+06 3.145
28 regular 1 14 14 67 2 0.492 faster 1 1.803435e+06 1.803437e+06 2.631
28 regular 1 15 15 67 2 0.535 faster 1 1.803439e+06 1.803442e+06 2.909
28 regular 1 16 16 66 2 0.149 faster 1 1.803443e+06 1.803445e+06 2.695
28 regular 1 17 17 54 2 0.392 slower 1 1.803446e+06 1.803449e+06 2.621
28 regular 1 18 18 55 2 0.132 slower 1 1.803450e+06 1.803453e+06 2.833
28 regular 1 19 19 65 2 0.297 slower 0 1.803454e+06 1.803457e+06 2.911
28 regular 1 20 20 66 2 0.470 faster 1 1.803458e+06 1.803461e+06 2.613
28 regular 1 21 21 65 2 0.103 faster 1 1.803462e+06 1.803464e+06 2.906
28 regular 1 22 22 65 2 0.401 faster 1 1.803466e+06 1.803469e+06 3.144
28 regular 1 23 23 56 2 0.501 faster 0 1.803470e+06 1.803473e+06 2.839
28 regular 1 24 24 65 2 0.295 faster 1 1.803474e+06 1.803477e+06 2.652
28 regular 1 25 25 65 2 0.395 faster 1 1.803478e+06 1.803480e+06 2.673
28 regular 1 26 26 64 2 0.412 faster 1 1.803482e+06 1.803484e+06 2.581
28 regular 1 27 27 64 2 0.345 faster 1 1.803486e+06 1.803488e+06 2.765
28 regular 1 28 28 63 2 0.450 faster 1 1.803490e+06 1.803493e+06 2.899
28 regular 1 29 29 63 2 0.593 faster 1 1.803494e+06 1.803497e+06 2.813
28 regular 1 30 30 62 2 0.575 slower 0 1.803498e+06 1.803501e+06 2.816
28 regular 1 31 31 63 2 0.212 faster 1 1.803502e+06 1.803504e+06 2.841
28 regular 1 32 32 63 2 0.193 slower 0 1.803506e+06 1.803509e+06 3.358
28 regular 1 33 33 56 2 0.425 slower 1 1.803510e+06 1.803513e+06 2.706
28 regular 1 34 34 63 2 0.597 slower 0 1.803514e+06 1.803518e+06 3.114
28 regular 1 35 35 56 2 0.295 slower 1 1.803519e+06 1.803522e+06 2.769
28 regular 1 36 36 64 2 0.244 faster 1 1.803523e+06 1.803526e+06 3.241
28 regular 1 37 37 57 2 0.319 slower 1 1.803527e+06 1.803530e+06 2.841
28 regular 1 38 38 63 2 0.363 faster 1 1.803531e+06 1.803534e+06 2.731
28 regular 1 39 39 58 2 0.321 slower 1 1.803535e+06 1.803538e+06 2.688
28 regular 1 40 40 58 2 0.262 slower 1 1.803539e+06 1.803542e+06 3.004
28 regular 1 41 41 59 2 0.118 slower 1 1.803543e+06 1.803546e+06 2.835
28 regular 1 42 42 59 2 0.528 slower 1 1.803547e+06 1.803551e+06 3.189
28 regular 1 43 43 59 2 0.494 slower 1 1.803552e+06 1.803555e+06 2.790
28 regular 1 44 44 59 2 0.596 faster 0 1.803556e+06 1.803559e+06 3.110
28 regular 1 45 45 62 2 0.178 slower 0 1.803560e+06 1.803563e+06 2.933
28 regular 1 46 46 57 2 0.266 slower 1 1.803564e+06 1.803567e+06 2.684
28 regular 1 47 47 62 2 0.386 slower 0 1.803568e+06 1.803571e+06 2.861
28 regular 1 48 48 57 2 0.557 slower 1 1.803572e+06 1.803575e+06 2.787
28 regular 1 49 49 63 2 0.141 slower 0 1.803576e+06 1.803578e+06 2.669
28 regular 1 50 50 56 2 0.484 slower 1 1.803580e+06 1.803582e+06 2.634
28 regular 1 51 51 63 2 0.375 slower 0 1.803583e+06 1.803586e+06 2.605
28 regular 1 52 52 56 2 0.484 slower 1 1.803587e+06 1.803590e+06 2.577
28 regular 1 53 53 64 2 0.536 slower 0 1.803591e+06 1.803593e+06 2.525
28 regular 1 54 54 65 2 0.419 faster 1 1.803595e+06 1.803598e+06 2.955
28 regular 1 55 55 56 2 0.353 slower 1 1.803599e+06 1.803602e+06 2.819
28 regular 1 56 56 56 2 0.113 slower 1 1.803603e+06 1.803606e+06 2.713
28 regular 1 57 57 57 2 0.117 slower 1 1.803607e+06 1.803609e+06 2.593
28 regular 1 58 58 57 2 0.541 slower 1 1.803611e+06 1.803613e+06 2.498
28 regular 1 59 59 58 2 0.309 slower 1 1.803614e+06 1.803617e+06 2.578
28 regular 1 60 60 62 2 0.364 slower 0 1.803618e+06 1.803620e+06 2.621
28 regular 1 61 61 57 2 0.282 slower 1 1.803621e+06 1.803624e+06 2.639
28 regular 1 62 62 58 2 0.198 slower 1 1.803625e+06 1.803627e+06 2.467
28 regular 1 63 63 62 2 0.471 slower 0 1.803628e+06 1.803631e+06 2.450
28 regular 1 64 64 63 2 0.337 slower 0 1.803632e+06 1.803634e+06 2.499
28 regular 1 65 65 64 2 0.582 slower 0 1.803636e+06 1.803638e+06 2.501
28 regular 1 66 66 55 2 0.497 slower 1 1.803639e+06 1.803643e+06 3.366
28 regular 1 67 67 56 2 0.281 slower 1 1.803644e+06 1.803646e+06 2.619
28 regular 1 68 68 64 2 0.254 slower 0 1.803647e+06 1.803650e+06 2.673
28 regular 1 69 69 65 2 0.318 slower 0 1.803651e+06 1.803655e+06 3.480
28 regular 1 70 70 54 2 0.578 slower 1 1.803656e+06 1.803659e+06 3.036
28 regular 1 71 71 65 2 0.213 slower 0 1.803660e+06 1.803663e+06 2.754
28 regular 1 72 72 66 2 0.429 faster 1 1.803664e+06 1.803667e+06 2.638
28 regular 1 73 73 66 2 0.191 faster 1 1.803668e+06 1.803671e+06 3.261
28 regular 1 74 74 65 2 0.102 faster 1 1.803672e+06 1.803675e+06 3.493
28 regular 1 75 75 55 2 0.403 faster 0 1.803676e+06 1.803679e+06 3.058
28 regular 1 76 76 66 2 0.325 faster 1 1.803681e+06 1.803683e+06 2.786
28 regular 1 77 77 55 2 0.593 faster 0 1.803685e+06 1.803688e+06 3.098
28 regular 1 78 78 54 2 0.524 slower 1 1.803689e+06 1.803692e+06 2.804
28 regular 1 79 79 66 2 0.323 faster 1 1.803693e+06 1.803696e+06 2.806
28 regular 1 80 80 65 2 0.336 faster 1 1.803697e+06 1.803700e+06 2.932
28 regular 1 81 81 55 2 0.511 slower 1 1.803701e+06 1.803704e+06 2.606
28 regular 1 82 82 56 2 0.583 faster 0 1.803705e+06 1.803708e+06 2.752
28 regular 1 83 83 65 2 0.207 faster 1 1.803709e+06 1.803712e+06 3.068
28 regular 1 84 84 55 2 0.198 faster 0 1.803713e+06 1.803716e+06 2.902
28 regular 1 85 85 66 2 0.381 faster 1 1.803717e+06 1.803720e+06 2.719
28 regular 1 86 86 55 2 0.503 slower 1 1.803721e+06 1.803723e+06 2.575
28 regular 1 87 87 55 2 0.347 slower 1 1.803724e+06 1.803729e+06 4.639
28 regular 1 88 88 64 2 0.236 slower 0 1.803730e+06 1.803733e+06 2.718
28 regular 1 89 89 55 2 0.275 slower 1 1.803734e+06 1.803737e+06 2.676
28 regular 1 90 90 55 2 0.155 slower 1 1.803737e+06 1.803740e+06 2.713
28 regular 1 91 91 64 2 0.539 faster 1 1.803742e+06 1.803745e+06 3.171
28 regular 1 92 92 56 2 0.497 slower 1 1.803746e+06 1.803749e+06 2.563
28 regular 1 93 93 57 2 0.306 slower 1 1.803750e+06 1.803752e+06 2.472
28 regular 1 94 94 57 2 0.169 slower 1 1.803753e+06 1.803756e+06 2.570
28 regular 1 95 95 62 2 0.513 slower 0 1.803757e+06 1.803759e+06 2.669
28 regular 1 96 96 63 2 0.538 slower 0 1.803761e+06 1.803764e+06 2.859
28 regular 1 97 97 56 2 0.395 faster 0 1.803765e+06 1.803768e+06 2.686
28 regular 1 98 98 55 2 0.158 faster 0 1.803769e+06 1.803772e+06 2.903
28 regular 1 99 99 54 2 0.194 faster 0 1.803773e+06 1.803776e+06 3.133
28 regular 1 100 100 53 2 0.289 slower 1 1.803777e+06 1.803780e+06 3.031
28 irregular 2 1 101 53 1 0.433 faster 0 1.803808e+06 1.803810e+06 1.643
28 irregular 2 2 102 52 3 0.348 faster 0 1.803811e+06 1.803815e+06 4.001
28 irregular 2 3 103 51 2.500000e+00 0.336 faster 0 1.803817e+06 1.803820e+06 3.312
28 irregular 2 4 104 50 2.500000e+00 0.352 faster 0 1.803822e+06 1.803825e+06 3.278
28 irregular 2 5 105 71 1.500000e+00 0.197 faster 1 1.803826e+06 1.803828e+06 2.429
28 irregular 2 6 106 50 3 0.130 slower 1 1.803829e+06 1.803833e+06 4.047
28 irregular 2 7 107 70 2 0.366 slower 0 1.803834e+06 1.803838e+06 3.497
28 irregular 2 8 108 49 2.500000e+00 0.157 slower 1 1.803839e+06 1.803842e+06 3.107
28 irregular 2 9 109 50 1 0.352 slower 1 1.803843e+06 1.803846e+06 2.598
28 irregular 2 10 110 50 3 0.524 faster 0 1.803847e+06 1.803851e+06 3.794
28 irregular 2 11 111 71 3 0.205 faster 1 1.803851e+06 1.803855e+06 3.975
28 irregular 2 12 112 70 3 0.394 slower 0 1.803857e+06 1.803860e+06 3.657
28 irregular 2 13 113 49 1.500000e+00 0.532 faster 0 1.803862e+06 1.803864e+06 2.555
28 irregular 2 14 114 72 2.500000e+00 0.505 slower 0 1.803866e+06 1.803869e+06 3.336
28 irregular 2 15 115 73 2.500000e+00 0.571 faster 1 1.803870e+06 1.803874e+06 3.330
28 irregular 2 16 116 73 1 0.456 slower 0 1.803875e+06 1.803877e+06 1.800
28 irregular 2 17 117 74 2 0.366 faster 1 1.803878e+06 1.803881e+06 2.606
28 irregular 2 18 118 47 2 0.355 slower 1 1.803882e+06 1.803885e+06 2.853
28 irregular 2 19 119 73 1 0.499 faster 1 1.803886e+06 1.803888e+06 1.751
28 irregular 2 20 120 48 1.500000e+00 0.395 slower 1 1.803889e+06 1.803891e+06 2.237
28 irregular 2 21 121 72 2.500000e+00 0.190 faster 1 1.803892e+06 1.803895e+06 3.436
28 irregular 2 22 122 71 2 0.340 faster 1 1.803896e+06 1.803899e+06 2.978
28 irregular 2 23 123 49 2.500000e+00 0.170 slower 1 1.803900e+06 1.803904e+06 3.212
28 irregular 2 24 124 70 2.500000e+00 0.101 slower 0 1.803905e+06 1.803909e+06 3.374
28 irregular 2 25 125 49 3 0.596 slower 1 1.803910e+06 1.803914e+06 4.117
28 irregular 2 26 126 49 2.500000e+00 0.255 slower 1 1.803915e+06 1.803919e+06 3.412
28 irregular 2 27 127 50 1.500000e+00 0.331 faster 0 1.803920e+06 1.803922e+06 2.268
28 irregular 2 28 128 71 2.500000e+00 0.353 faster 1 1.803923e+06 1.803926e+06 3.270
28 irregular 2 29 129 49 3 0.361 slower 1 1.803927e+06 1.803931e+06 3.645
28 irregular 2 30 130 50 1 0.191 slower 1 1.803932e+06 1.803934e+06 2.076
28 irregular 2 31 131 70 2 0.338 slower 0 1.803936e+06 1.803938e+06 2.708
28 irregular 2 32 132 71 1 0.481 slower 0 1.803940e+06 1.803941e+06 1.793
28 irregular 2 33 133 48 2 0.110 slower 1 1.803942e+06 1.803945e+06 2.792
28 irregular 2 34 134 71 3 0.297 slower 0 1.803946e+06 1.803950e+06 4.003
28 irregular 2 35 135 48 1.500000e+00 0.488 slower 1 1.803952e+06 1.803954e+06 2.511
28 irregular 2 36 136 48 1.500000e+00 0.207 slower 1 1.803955e+06 1.803957e+06 2.184
28 irregular 2 37 137 71 1.500000e+00 0.180 faster 1 1.803960e+06 1.803963e+06 2.957
28 irregular 2 38 138 49 2 0.480 faster 0 1.803964e+06 1.803968e+06 3.664
28 irregular 2 39 139 48 1 0.235 faster 0 1.803969e+06 1.803971e+06 2.383
28 irregular 2 40 140 47 2 0.563 slower 1 1.803973e+06 1.803976e+06 2.759
28 irregular 2 41 141 72 1.500000e+00 0.282 slower 0 1.803977e+06 1.803979e+06 2.039
28 irregular 2 42 142 73 1.500000e+00 0.108 faster 1 1.803980e+06 1.803982e+06 2.474
28 irregular 2 43 143 47 3 0.217 slower 1 1.803983e+06 1.803987e+06 3.675
28 irregular 2 44 144 72 2.500000e+00 0.505 faster 1 1.803989e+06 1.803993e+06 3.672
28 irregular 2 45 145 72 1.500000e+00 0.411 faster 1 1.803994e+06 1.803996e+06 2.329
28 irregular 2 46 146 71 1 0.409 faster 1 1.803997e+06 1.803999e+06 2.038
28 irregular 2 47 147 49 2 0.418 slower 1 1.804001e+06 1.804003e+06 2.559
28 irregular 2 48 148 50 2 0.471 faster 0 1.804004e+06 1.804008e+06 3.180
28 irregular 2 49 149 49 1.500000e+00 0.564 faster 0 1.804009e+06 1.804011e+06 2.340
28 irregular 2 50 150 48 2 0.341 slower 1 1.804012e+06 1.804015e+06 3.211
28 irregular 2 51 151 48 3 0.514 slower 1 1.804017e+06 1.804021e+06 3.884
28 irregular 2 52 152 49 1 0.237 slower 1 1.804022e+06 1.804023e+06 1.641
28 irregular 2 53 153 49 1 0.437 slower 1 1.804025e+06 1.804026e+06 1.742
28 irregular 2 54 154 70 1.500000e+00 0.582 faster 1 1.804028e+06 1.804030e+06 2.427
28 irregular 2 55 155 50 2.500000e+00 0.336 slower 1 1.804031e+06 1.804035e+06 3.743
28 irregular 2 56 156 69 3 0.515 slower 0 1.804036e+06 1.804040e+06 4.155
28 irregular 2 57 157 70 1 0.337 slower 0 1.804041e+06 1.804043e+06 1.594
28 irregular 2 58 158 49 1.500000e+00 0.453 faster 0 1.804044e+06 1.804046e+06 2.221
28 irregular 2 59 159 48 2 0.535 slower 1 1.804048e+06 1.804051e+06 2.839
28 irregular 2 60 160 72 3 0.432 faster 1 1.804052e+06 1.804056e+06 3.628
28 irregular 2 61 161 49 3 0.594 slower 1 1.804057e+06 1.804061e+06 3.836
28 irregular 2 62 162 71 2.500000e+00 0.142 faster 1 1.804061e+06 1.804065e+06 3.183
28 irregular 2 63 163 70 2 0.101 slower 0 1.804066e+06 1.804068e+06 2.778
28 irregular 2 64 164 71 1.500000e+00 0.540 faster 1 1.804070e+06 1.804072e+06 2.484
28 irregular 2 65 165 71 2 0.473 faster 1 1.804073e+06 1.804076e+06 3.071
28 irregular 2 66 166 70 2 0.233 slower 0 1.804077e+06 1.804080e+06 3.320
28 irregular 2 67 167 49 1.500000e+00 0.192 slower 1 1.804081e+06 1.804084e+06 2.385
28 irregular 2 68 168 49 2.500000e+00 0.564 faster 0 1.804086e+06 1.804089e+06 3.213
28 irregular 2 69 169 48 2.500000e+00 0.130 slower 1 1.804090e+06 1.804093e+06 3.161
28 irregular 2 70 170 49 1.500000e+00 0.455 faster 0 1.804095e+06 1.804097e+06 2.391
28 irregular 2 71 171 72 2 0.441 faster 1 1.804098e+06 1.804101e+06 2.580
28 irregular 2 72 172 48 1 0.334 slower 1 1.804102e+06 1.804104e+06 1.763
28 irregular 2 73 173 71 1.500000e+00 0.175 slower 0 1.804105e+06 1.804107e+06 2.448
28 irregular 2 74 174 72 1 0.355 slower 0 1.804108e+06 1.804110e+06 1.735
28 irregular 2 75 175 73 1 0.373 faster 1 1.804112e+06 1.804113e+06 1.674
28 irregular 2 76 176 47 2 0.361 slower 1 1.804115e+06 1.804117e+06 2.675
28 irregular 2 77 177 72 2 0.371 faster 1 1.804119e+06 1.804121e+06 2.607
28 irregular 2 78 178 72 2.500000e+00 0.518 faster 1 1.804122e+06 1.804125e+06 3.118
28 irregular 2 79 179 71 1 0.404 slower 0 1.804127e+06 1.804128e+06 1.666
28 irregular 2 80 180 48 2.500000e+00 0.167 slower 1 1.804130e+06 1.804133e+06 3.023
28 irregular 2 81 181 72 1 0.207 faster 1 1.804134e+06 1.804136e+06 2.201
28 irregular 2 82 182 71 3 0.515 faster 1 1.804137e+06 1.804141e+06 3.678
28 irregular 2 83 183 49 1.500000e+00 0.572 none 2 1.804142e+06 1.804147e+06 4.500
28 irregular 2 84 184 71 3 0.330 slower 0 1.804148e+06 1.804152e+06 4.250
28 irregular 2 85 185 48 3 0.265 slower 1 1.804153e+06 1.804157e+06 3.543
28 irregular 2 86 186 49 2.500000e+00 0.150 slower 1 1.804158e+06 1.804161e+06 3.419
28 irregular 2 87 187 71 2 0.285 faster 1 1.804162e+06 1.804165e+06 2.837
28 irregular 2 88 188 70 1.500000e+00 0.145 faster 1 1.804166e+06 1.804168e+06 2.139
28 irregular 2 89 189 70 3 0.469 faster 1 1.804169e+06 1.804173e+06 3.964
28 irregular 2 90 190 51 2 0.395 faster 0 1.804175e+06 1.804178e+06 2.900
28 irregular 2 91 191 70 3 0.253 faster 1 1.804180e+06 1.804183e+06 3.823
28 irregular 2 92 192 50 1 0.252 faster 0 1.804184e+06 1.804186e+06 2.012
28 irregular 2 93 193 49 3 0.151 slower 1 1.804188e+06 1.804192e+06 3.676
28 irregular 2 94 194 50 1 0.279 slower 1 1.804193e+06 1.804195e+06 1.866
28 irregular 2 95 195 70 2.500000e+00 0.349 faster 1 1.804196e+06 1.804199e+06 3.110
28 irregular 2 96 196 69 2.500000e+00 0.334 faster 1 1.804200e+06 1.804204e+06 3.589
28 irregular 2 97 197 69 1.500000e+00 0.459 faster 1 1.804205e+06 1.804207e+06 2.212
28 irregular 2 98 198 68 1 0.524 faster 1 1.804208e+06 1.804211e+06 2.206
28 irregular 2 99 199 68 3 0.565 slower 0 1.804212e+06 1.804216e+06 3.958
28 irregular 2 100 200 51 1 0.517 faster 0 1.804217e+06 1.804219e+06 1.696
28 regular 3 1 201 50 2.500000e+00 0.470 slower 1 1.804333e+06 1.804336e+06 3.302
28 regular 3 2 202 51 2.500000e+00 0.450 faster 0 1.804337e+06 1.804341e+06 3.405
28 regular 3 3 203 70 2.500000e+00 0.367 faster 1 1.804342e+06 1.804345e+06 3.120
28 regular 3 4 204 70 2.500000e+00 0.541 faster 1 1.804346e+06 1.804349e+06 3.119
28 regular 3 5 205 51 2.500000e+00 0.479 faster 0 1.804351e+06 1.804354e+06 3.565
28 regular 3 6 206 70 2.500000e+00 0.322 faster 1 1.804355e+06 1.804358e+06 3.105
28 regular 3 7 207 50 2.500000e+00 0.532 slower 1 1.804360e+06 1.804363e+06 3.165
28 regular 3 8 208 51 2.500000e+00 0.443 slower 1 1.804364e+06 1.804368e+06 3.679
28 regular 3 9 209 51 2.500000e+00 0.169 slower 1 1.804369e+06 1.804372e+06 3.653
28 regular 3 10 210 68 2.500000e+00 0.532 faster 1 1.804373e+06 1.804377e+06 3.034
28 regular 3 11 211 52 2.500000e+00 0.185 slower 1 1.804377e+06 1.804381e+06 3.458
28 regular 3 12 212 53 2.500000e+00 0.161 faster 0 1.804382e+06 1.804385e+06 3.121
28 regular 3 13 213 68 2.500000e+00 0.380 faster 1 1.804386e+06 1.804389e+06 3.179
28 regular 3 14 214 68 2.500000e+00 0.336 faster 1 1.804390e+06 1.804393e+06 3.051
28 regular 3 15 215 53 2.500000e+00 0.508 none 2 1.804395e+06 1.804400e+06 5.500
28 regular 3 16 216 67 2.500000e+00 0.314 faster 1 1.804401e+06 1.804404e+06 3.182
28 regular 3 17 217 67 2.500000e+00 0.119 faster 1 1.804405e+06 1.804408e+06 3.144
28 regular 3 18 218 66 2.500000e+00 0.382 slower 0 1.804410e+06 1.804413e+06 3.423
28 regular 3 19 219 67 2.500000e+00 0.545 faster 1 1.804414e+06 1.804418e+06 3.193
28 regular 3 20 220 53 2.500000e+00 0.176 slower 1 1.804418e+06 1.804422e+06 3.261
28 regular 3 21 221 66 2.500000e+00 0.598 faster 1 1.804423e+06 1.804426e+06 3.337
28 regular 3 22 222 66 2.500000e+00 0.221 faster 1 1.804428e+06 1.804431e+06 3.071
28 regular 3 23 223 55 2.500000e+00 0.214 faster 0 1.804432e+06 1.804435e+06 3.507
28 regular 3 24 224 66 2.500000e+00 0.449 faster 1 1.804436e+06 1.804440e+06 3.255
28 regular 3 25 225 66 2.500000e+00 0.354 faster 1 1.804441e+06 1.804444e+06 3.546
28 regular 3 26 226 65 2.500000e+00 0.443 faster 1 1.804446e+06 1.804449e+06 3.146
28 regular 3 27 227 55 2.500000e+00 0.113 slower 1 1.804450e+06 1.804453e+06 3.135
28 regular 3 28 228 64 2.500000e+00 0.408 faster 1 1.804454e+06 1.804457e+06 3.362
28 regular 3 29 229 56 2.500000e+00 0.344 slower 1 1.804458e+06 1.804462e+06 3.155
28 regular 3 30 230 63 2.500000e+00 0.470 faster 1 1.804463e+06 1.804467e+06 3.607
28 regular 3 31 231 57 2.500000e+00 0.138 slower 1 1.804468e+06 1.804471e+06 3.089
28 regular 3 32 232 58 2.500000e+00 0.244 slower 1 1.804472e+06 1.804475e+06 3.136
28 regular 3 33 233 58 2.500000e+00 0.577 slower 1 1.804476e+06 1.804479e+06 3.212
28 regular 3 34 234 61 2.500000e+00 0.297 slower 0 1.804480e+06 1.804484e+06 3.249
28 regular 3 35 235 58 2.500000e+00 0.124 slower 1 1.804485e+06 1.804488e+06 3.084
28 regular 3 36 236 58 2.500000e+00 0.530 slower 1 1.804489e+06 1.804492e+06 3.217
28 regular 3 37 237 59 2.500000e+00 0.188 slower 1 1.804493e+06 1.804496e+06 3.161
28 regular 3 38 238 59 2.500000e+00 0.285 slower 1 1.804497e+06 1.804500e+06 3.010
28 regular 3 39 239 61 2.500000e+00 0.274 slower 0 1.804501e+06 1.804504e+06 2.944
28 regular 3 40 240 62 2.500000e+00 0.525 slower 0 1.804505e+06 1.804508e+06 3.172
28 regular 3 41 241 57 2.500000e+00 0.527 slower 1 1.804510e+06 1.804515e+06 5.415
28 regular 3 42 242 57 2.500000e+00 0.497 faster 0 1.804517e+06 1.804520e+06 3.363
28 regular 3 43 243 56 2.500000e+00 0.102 none 2 1.804521e+06 1.804526e+06 5.499
28 regular 3 44 244 64 2.500000e+00 0.119 slower 0 1.804528e+06 1.804531e+06 3.170
28 regular 3 45 245 65 2.500000e+00 0.414 faster 1 1.804532e+06 1.804535e+06 3.102
28 regular 3 46 246 64 2.500000e+00 0.406 faster 1 1.804536e+06 1.804540e+06 3.839
28 regular 3 47 247 56 2.500000e+00 0.308 slower 1 1.804541e+06 1.804545e+06 3.454
28 regular 3 48 248 63 2.500000e+00 0.111 slower 0 1.804545e+06 1.804549e+06 3.331
28 regular 3 49 249 64 2.500000e+00 0.368 faster 1 1.804550e+06 1.804553e+06 3.203
28 regular 3 50 250 64 2.500000e+00 0.148 slower 0 1.804555e+06 1.804558e+06 3.359
28 regular 3 51 251 55 2.500000e+00 0.471 slower 1 1.804560e+06 1.804563e+06 3.660
28 regular 3 52 252 56 2.500000e+00 0.550 faster 0 1.804565e+06 1.804568e+06 3.112
28 regular 3 53 253 65 2.500000e+00 0.447 faster 1 1.804569e+06 1.804573e+06 3.259
28 regular 3 54 254 55 2.500000e+00 0.230 slower 1 1.804574e+06 1.804577e+06 3.212
28 regular 3 55 255 64 2.500000e+00 0.369 slower 0 1.804578e+06 1.804581e+06 3.423
28 regular 3 56 256 55 2.500000e+00 0.319 slower 1 1.804582e+06 1.804586e+06 3.471
28 regular 3 57 257 55 2.500000e+00 0.140 slower 1 1.804587e+06 1.804590e+06 3.281
28 regular 3 58 258 64 2.500000e+00 0.328 faster 1 1.804591e+06 1.804594e+06 3.088
28 regular 3 59 259 64 2.500000e+00 0.460 faster 1 1.804595e+06 1.804598e+06 3.372
28 regular 3 60 260 57 2.500000e+00 0.285 faster 0 1.804600e+06 1.804603e+06 3.310
28 regular 3 61 261 56 2.500000e+00 0.398 faster 0 1.804604e+06 1.804607e+06 3.249
28 regular 3 62 262 65 2.500000e+00 0.437 faster 1 1.804609e+06 1.804612e+06 3.148
28 regular 3 63 263 65 2.500000e+00 0.460 faster 1 1.804613e+06 1.804616e+06 3.099
28 regular 3 64 264 64 2.500000e+00 0.306 faster 1 1.804618e+06 1.804621e+06 3.443
28 regular 3 65 265 56 2.500000e+00 0.531 slower 1 1.804622e+06 1.804626e+06 3.145
28 regular 3 66 266 63 2.500000e+00 0.580 slower 0 1.804627e+06 1.804630e+06 3.309
28 regular 3 67 267 56 2.500000e+00 0.278 slower 1 1.804631e+06 1.804635e+06 3.090
28 regular 3 68 268 56 2.500000e+00 0.185 faster 0 1.804636e+06 1.804639e+06 3.072
28 regular 3 69 269 65 2.500000e+00 0.188 none 2 1.804639e+06 1.804645e+06 5.500
28 regular 3 70 270 65 2.500000e+00 0.514 faster 1 1.804647e+06 1.804650e+06 2.910
28 regular 3 71 271 56 2.500000e+00 0.552 slower 1 1.804651e+06 1.804654e+06 3.162
28 regular 3 72 272 64 2.500000e+00 0.485 faster 1 1.804655e+06 1.804658e+06 3.073
28 regular 3 73 273 57 2.500000e+00 0.367 slower 1 1.804659e+06 1.804664e+06 4.621
28 regular 3 74 274 63 2.500000e+00 0.588 faster 1 1.804665e+06 1.804669e+06 3.331
28 regular 3 75 275 62 2.500000e+00 0.379 faster 1 1.804670e+06 1.804673e+06 3.286
28 regular 3 76 276 58 2.500000e+00 0.126 slower 1 1.804674e+06 1.804677e+06 3.191
28 regular 3 77 277 61 2.500000e+00 0.369 slower 0 1.804678e+06 1.804684e+06 5.368
28 regular 3 78 278 58 2.500000e+00 0.271 faster 0 1.804685e+06 1.804688e+06 3.807
28 regular 3 79 279 57 2.500000e+00 0.387 slower 1 1.804690e+06 1.804694e+06 4.703
28 regular 3 80 280 57 2.500000e+00 0.337 slower 1 1.804696e+06 1.804699e+06 3.359
28 regular 3 81 281 62 2.500000e+00 0.580 slower 0 1.804700e+06 1.804704e+06 3.589
28 regular 3 82 282 63 2.500000e+00 0.429 faster 1 1.804705e+06 1.804709e+06 3.462
28 regular 3 83 283 57 2.500000e+00 0.560 slower 1 1.804710e+06 1.804713e+06 3.248
28 regular 3 84 284 58 2.500000e+00 0.529 slower 1 1.804715e+06 1.804718e+06 3.397
28 regular 3 85 285 62 2.500000e+00 0.198 slower 0 1.804719e+06 1.804722e+06 3.192
28 regular 3 86 286 57 2.500000e+00 0.484 slower 1 1.804723e+06 1.804726e+06 3.117
28 regular 3 87 287 58 2.500000e+00 0.464 slower 1 1.804728e+06 1.804731e+06 3.214
28 regular 3 88 288 58 2.500000e+00 0.186 slower 1 1.804732e+06 1.804735e+06 3.212
28 regular 3 89 289 59 2.500000e+00 0.271 slower 1 1.804736e+06 1.804739e+06 3.195
28 regular 3 90 290 61 2.500000e+00 0.440 slower 0 1.804740e+06 1.804743e+06 3.142
28 regular 3 91 291 62 2.500000e+00 0.502 slower 0 1.804745e+06 1.804748e+06 3.658
28 regular 3 92 292 57 2.500000e+00 0.109 slower 1 1.804749e+06 1.804752e+06 3.085
28 regular 3 93 293 62 2.500000e+00 0.392 slower 0 1.804753e+06 1.804757e+06 3.113
28 regular 3 94 294 57 2.500000e+00 0.388 faster 0 1.804758e+06 1.804761e+06 3.126
28 regular 3 95 295 64 2.500000e+00 0.259 slower 0 1.804762e+06 1.804765e+06 3.187
28 regular 3 96 296 55 2.500000e+00 0.401 slower 1 1.804766e+06 1.804769e+06 3.176
28 regular 3 97 297 65 2.500000e+00 0.424 slower 0 1.804771e+06 1.804774e+06 3.172
28 regular 3 98 298 66 2.500000e+00 0.387 slower 0 1.804775e+06 1.804780e+06 5.095
28 regular 3 99 299 53 2.500000e+00 0.189 slower 1 1.804781e+06 1.804784e+06 3.147
28 regular 3 100 300 66 2.500000e+00 0.274 faster 1 1.804785e+06 1.804788e+06 3.114
28 irregular 4 1 301 66 3 0.381 slower 0 1.804816e+06 1.804820e+06 4.160
28 irregular 4 2 302 53 3 0.226 faster 0 1.804822e+06 1.804826e+06 3.636
28 irregular 4 3 303 68 2.500000e+00 0.442 faster 1 1.804828e+06 1.804831e+06 3.152
28 irregular 4 4 304 67 1 0.473 faster 1 1.804832e+06 1.804834e+06 1.712
28 irregular 4 5 305 53 2.500000e+00 0.103 faster 0 1.804835e+06 1.804838e+06 3.336
28 irregular 4 6 306 52 1.500000e+00 0.239 faster 0 1.804840e+06 1.804842e+06 2.413
28 irregular 4 7 307 51 1.500000e+00 0.170 slower 1 1.804843e+06 1.804846e+06 2.600
28 irregular 4 8 308 52 3 0.384 slower 1 1.804847e+06 1.804851e+06 3.780
28 irregular 4 9 309 68 2 0.280 faster 1 1.804852e+06 1.804855e+06 3.193
28 irregular 4 10 310 53 2.500000e+00 0.253 faster 0 1.804856e+06 1.804859e+06 3.073
28 irregular 4 11 311 68 1.500000e+00 0.100 slower 0 1.804860e+06 1.804863e+06 2.280
28 irregular 4 12 312 69 1 0.532 faster 1 1.804865e+06 1.804867e+06 1.990
28 irregular 4 13 313 51 3 0.519 slower 1 1.804868e+06 1.804872e+06 3.806
28 irregular 4 14 314 68 3 0.496 slower 0 1.804873e+06 1.804877e+06 3.699
28 irregular 4 15 315 69 2 0.200 faster 1 1.804878e+06 1.804881e+06 2.872
28 irregular 4 16 316 69 2.500000e+00 0.504 slower 0 1.804882e+06 1.804885e+06 3.275
28 irregular 4 17 317 70 3 0.430 slower 0 1.804886e+06 1.804892e+06 5.650
28 irregular 4 18 318 49 2 0.561 slower 1 1.804893e+06 1.804897e+06 3.348
28 irregular 4 19 319 70 1.500000e+00 0.523 slower 0 1.804898e+06 1.804900e+06 2.336
28 irregular 4 20 320 71 1.500000e+00 0.165 faster 1 1.804901e+06 1.804904e+06 2.504
28 irregular 4 21 321 71 3 0.183 faster 1 1.804905e+06 1.804909e+06 3.771
28 irregular 4 22 322 70 1 0.212 slower 0 1.804910e+06 1.804911e+06 1.776
28 irregular 4 23 323 49 2 0.479 slower 1 1.804913e+06 1.804915e+06 2.655
28 irregular 4 24 324 49 1.500000e+00 0.112 slower 1 1.804916e+06 1.804920e+06 3.388
28 irregular 4 25 325 70 2 0.146 slower 0 1.804921e+06 1.804924e+06 2.686
28 irregular 4 26 326 49 1 0.169 slower 1 1.804925e+06 1.804927e+06 1.923
28 irregular 4 27 327 49 2 0.470 slower 1 1.804928e+06 1.804931e+06 2.780
28 irregular 4 28 328 70 2.500000e+00 0.247 faster 1 1.804932e+06 1.804935e+06 3.641
28 irregular 4 29 329 70 1 0.129 slower 0 1.804936e+06 1.804938e+06 1.744
28 irregular 4 30 330 71 2 0.333 faster 1 1.804939e+06 1.804942e+06 2.707
28 irregular 4 31 331 50 3 0.454 slower 1 1.804944e+06 1.804947e+06 3.629
28 irregular 4 32 332 70 1 0.564 slower 0 1.804949e+06 1.804950e+06 1.812
28 irregular 4 33 333 71 1 0.168 slower 0 1.804951e+06 1.804953e+06 2.030
28 irregular 4 34 334 72 1 0.382 slower 0 1.804954e+06 1.804956e+06 1.646
28 irregular 4 35 335 73 2.500000e+00 0.482 faster 1 1.804957e+06 1.804960e+06 2.996
28 irregular 4 36 336 48 2.500000e+00 0.468 slower 1 1.804962e+06 1.804965e+06 3.165
28 irregular 4 37 337 48 1 0.559 slower 1 1.804966e+06 1.804968e+06 1.665
28 irregular 4 38 338 49 1 0.318 slower 1 1.804969e+06 1.804970e+06 1.637
28 irregular 4 39 339 71 2.500000e+00 0.369 slower 0 1.804972e+06 1.804975e+06 3.071
28 irregular 4 40 340 72 1.500000e+00 0.246 slower 0 1.804976e+06 1.804978e+06 2.538
28 irregular 4 41 341 47 2 0.170 slower 1 1.804979e+06 1.804983e+06 4.093
28 irregular 4 42 342 72 1.500000e+00 0.475 faster 1 1.804985e+06 1.804987e+06 2.060
28 irregular 4 43 343 48 1 0.199 slower 1 1.804988e+06 1.804989e+06 1.826
28 irregular 4 44 344 49 2 0.335 slower 1 1.804990e+06 1.804993e+06 2.687
28 irregular 4 45 345 49 3 0.567 slower 1 1.804995e+06 1.804999e+06 3.951
28 irregular 4 46 346 70 1 0.499 faster 1 1.805000e+06 1.805001e+06 1.588
28 irregular 4 47 347 50 2.500000e+00 0.297 slower 1 1.805006e+06 1.805009e+06 3.625
28 irregular 4 48 348 69 1.500000e+00 0.195 faster 1 1.805010e+06 1.805012e+06 2.182
28 irregular 4 49 349 69 2 0.281 faster 1 1.805013e+06 1.805017e+06 3.011
28 irregular 4 50 350 52 1 0.243 slower 1 1.805018e+06 1.805019e+06 1.643
28 irregular 4 51 351 52 2 0.438 slower 1 1.805020e+06 1.805023e+06 2.887
28 irregular 4 52 352 67 3 0.120 faster 1 1.805024e+06 1.805028e+06 4.434
28 irregular 4 53 353 53 1.500000e+00 0.591 slower 1 1.805030e+06 1.805033e+06 2.813
28 irregular 4 54 354 54 3 0.484 none 2 1.805034e+06 1.805040e+06 5.999
28 irregular 4 55 355 54 2 0.330 slower 1 1.805041e+06 1.805044e+06 3.103
28 irregular 4 56 356 66 2 0.413 faster 1 1.805045e+06 1.805048e+06 3.052
28 irregular 4 57 357 65 2 0.521 faster 1 1.805050e+06 1.805052e+06 2.624
28 irregular 4 58 358 55 1.500000e+00 0.130 faster 0 1.805054e+06 1.805056e+06 2.115
28 irregular 4 59 359 54 3 0.389 faster 0 1.805057e+06 1.805061e+06 4.177
28 irregular 4 60 360 67 3 0.244 faster 1 1.805062e+06 1.805066e+06 3.847
28 irregular 4 61 361 54 1.500000e+00 0.347 slower 1 1.805067e+06 1.805070e+06 2.827
28 irregular 4 62 362 54 2.500000e+00 0.115 faster 0 1.805071e+06 1.805074e+06 3.292
28 irregular 4 63 363 67 1.500000e+00 0.365 slower 0 1.805075e+06 1.805077e+06 2.117
28 irregular 4 64 364 52 3 0.336 faster 0 1.805078e+06 1.805082e+06 3.722
28 irregular 4 65 365 69 2.500000e+00 0.358 slower 0 1.805083e+06 1.805086e+06 3.074
28 irregular 4 66 366 50 1.500000e+00 0.500 slower 1 1.805088e+06 1.805090e+06 2.138
28 irregular 4 67 367 51 1 0.225 slower 1 1.805091e+06 1.805092e+06 1.697
28 irregular 4 68 368 69 2 0.442 faster 1 1.805093e+06 1.805096e+06 3.027
28 irregular 4 69 369 68 3 0.414 slower 0 1.805098e+06 1.805102e+06 3.966
28 irregular 4 70 370 69 1.500000e+00 0.389 slower 0 1.805103e+06 1.805105e+06 2.203
28 irregular 4 71 371 70 2 0.477 slower 0 1.805106e+06 1.805109e+06 2.668
28 irregular 4 72 372 49 1.500000e+00 0.263 slower 1 1.805110e+06 1.805112e+06 2.029
28 irregular 4 73 373 49 3 0.247 faster 0 1.805113e+06 1.805118e+06 4.241
28 irregular 4 74 374 72 1 0.237 slower 0 1.805119e+06 1.805120e+06 1.740
28 irregular 4 75 375 73 2 0.144 slower 0 1.805121e+06 1.805124e+06 2.935
28 irregular 4 76 376 74 2.500000e+00 0.525 faster 1 1.805125e+06 1.805128e+06 3.046
28 irregular 4 77 377 73 3 0.198 slower 0 1.805130e+06 1.805133e+06 3.626
28 irregular 4 78 378 46 2.500000e+00 0.454 slower 1 1.805134e+06 1.805137e+06 2.987
28 irregular 4 79 379 46 1 0.373 slower 1 1.805138e+06 1.805140e+06 1.591
28 irregular 4 80 380 47 2.500000e+00 0.227 slower 1 1.805141e+06 1.805144e+06 3.030
28 irregular 4 81 381 73 2.500000e+00 0.166 slower 0 1.805145e+06 1.805148e+06 3.255
28 irregular 4 82 382 46 2 0.536 slower 1 1.805150e+06 1.805152e+06 2.563
28 irregular 4 83 383 47 1 0.255 slower 1 1.805153e+06 1.805155e+06 1.922
28 irregular 4 84 384 47 1 0.371 slower 1 1.805156e+06 1.805158e+06 1.727
28 irregular 4 85 385 48 2 0.209 slower 1 1.805159e+06 1.805162e+06 3.010
28 irregular 4 86 386 48 2.500000e+00 0.198 slower 1 1.805163e+06 1.805167e+06 4.251
28 irregular 4 87 387 71 2.500000e+00 0.528 slower 0 1.805169e+06 1.805172e+06 3.142
28 irregular 4 88 388 72 1 0.118 faster 1 1.805173e+06 1.805175e+06 2.489
28 irregular 4 89 389 48 2.500000e+00 0.153 faster 0 1.805176e+06 1.805179e+06 3.566
28 irregular 4 90 390 47 1.500000e+00 0.536 slower 1 1.805181e+06 1.805183e+06 2.106
28 irregular 4 91 391 72 2.500000e+00 0.303 faster 1 1.805184e+06 1.805187e+06 3.232
28 irregular 4 92 392 48 1 0.256 slower 1 1.805188e+06 1.805189e+06 1.586
28 irregular 4 93 393 71 3 0.383 faster 1 1.805191e+06 1.805195e+06 3.893
28 irregular 4 94 394 71 3 0.358 faster 1 1.805196e+06 1.805201e+06 4.717
28 irregular 4 95 395 50 2.500000e+00 0.432 slower 1 1.805202e+06 1.805205e+06 3.026
28 irregular 4 96 396 70 1.500000e+00 0.502 slower 0 1.805206e+06 1.805208e+06 2.238
28 irregular 4 97 397 49 1.500000e+00 0.188 slower 1 1.805209e+06 1.805211e+06 2.050
28 irregular 4 98 398 50 3 0.418 slower 1 1.805213e+06 1.805219e+06 5.896
28 irregular 4 99 399 70 1.500000e+00 0.530 faster 1 1.805220e+06 1.805222e+06 2.162
28 irregular 4 100 400 51 2 0.220 slower 1 1.805223e+06 1.805226e+06 2.700
28 regular 5 1 401 69 1 0.372 faster 1 1.805245e+06 1.805246e+06 1.589
28 regular 5 2 402 52 1 0.410 faster 0 1.805248e+06 1.805249e+06 1.500
28 regular 5 3 403 51 1 0.548 faster 0 1.805251e+06 1.805253e+06 1.927
28 regular 5 4 404 50 1 0.588 faster 0 1.805254e+06 1.805256e+06 1.676
28 regular 5 5 405 49 1 0.514 slower 1 1.805257e+06 1.805260e+06 2.380
28 regular 5 6 406 49 1 0.341 slower 1 1.805261e+06 1.805262e+06 1.745
28 regular 5 7 407 70 1 0.231 faster 1 1.805264e+06 1.805265e+06 1.562
28 regular 5 8 408 50 1 0.200 faster 0 1.805266e+06 1.805268e+06 1.625
28 regular 5 9 409 49 1 0.229 faster 0 1.805269e+06 1.805271e+06 1.972
28 regular 5 10 410 72 1 0.516 faster 1 1.805272e+06 1.805274e+06 1.522
28 regular 5 11 411 49 1 0.172 slower 1 1.805275e+06 1.805276e+06 1.692
28 regular 5 12 412 49 1 0.560 slower 1 1.805278e+06 1.805280e+06 1.724
28 regular 5 13 413 70 1 0.182 faster 1 1.805281e+06 1.805282e+06 1.570
28 regular 5 14 414 50 1 0.551 slower 1 1.805284e+06 1.805286e+06 2.112
28 regular 5 15 415 69 1 0.377 faster 1 1.805287e+06 1.805289e+06 1.546
28 regular 5 16 416 69 1 0.296 faster 1 1.805290e+06 1.805291e+06 1.537
28 regular 5 17 417 52 1 0.511 slower 1 1.805293e+06 1.805294e+06 1.660
28 regular 5 18 418 68 1 0.504 faster 1 1.805296e+06 1.805297e+06 1.527
28 regular 5 19 419 67 1 0.485 faster 1 1.805298e+06 1.805300e+06 1.753
28 regular 5 20 420 53 1 0.204 faster 0 1.805301e+06 1.805303e+06 2.021
28 regular 5 21 421 68 1 0.326 faster 1 1.805304e+06 1.805306e+06 1.582
28 regular 5 22 422 53 1 0.270 faster 0 1.805307e+06 1.805309e+06 1.883
28 regular 5 23 423 68 1 0.239 faster 1 1.805310e+06 1.805312e+06 1.689
28 regular 5 24 424 52 1 0.594 slower 1 1.805313e+06 1.805315e+06 1.854
28 regular 5 25 425 67 1 0.242 faster 1 1.805316e+06 1.805317e+06 1.471
28 regular 5 26 426 67 1 0.241 faster 1 1.805319e+06 1.805320e+06 1.565
28 regular 5 27 427 66 1 0.156 faster 1 1.805321e+06 1.805323e+06 1.776
28 regular 5 28 428 54 1 0.140 faster 0 1.805324e+06 1.805326e+06 2.027
28 regular 5 29 429 53 1 0.322 slower 1 1.805327e+06 1.805329e+06 1.804
28 regular 5 30 430 66 1 0.505 faster 1 1.805330e+06 1.805332e+06 1.531
28 regular 5 31 431 54 1 0.442 faster 0 1.805333e+06 1.805335e+06 1.631
28 regular 5 32 432 67 1 0.452 faster 1 1.805336e+06 1.805338e+06 1.722
28 regular 5 33 433 66 1 0.392 faster 1 1.805339e+06 1.805341e+06 1.807
28 regular 5 34 434 66 1 0.297 slower 0 1.805342e+06 1.805343e+06 1.676
28 regular 5 35 435 67 1 0.416 faster 1 1.805344e+06 1.805346e+06 1.533
28 regular 5 36 436 54 1 0.166 faster 0 1.805347e+06 1.805348e+06 1.730
28 regular 5 37 437 67 1 0.505 faster 1 1.805350e+06 1.805352e+06 1.599
28 regular 5 38 438 67 1 0.541 slower 0 1.805353e+06 1.805354e+06 1.677
28 regular 5 39 439 68 1 0.177 faster 1 1.805356e+06 1.805357e+06 1.584
28 regular 5 40 440 67 1 0.588 faster 1 1.805358e+06 1.805360e+06 1.641
28 regular 5 41 441 53 1 0.380 slower 1 1.805361e+06 1.805363e+06 1.662
28 regular 5 42 442 66 1 0.440 faster 1 1.805364e+06 1.805366e+06 1.798
28 regular 5 43 443 66 1 0.568 faster 1 1.805367e+06 1.805369e+06 1.544
28 regular 5 44 444 65 1 0.526 faster 1 1.805370e+06 1.805371e+06 1.543
28 regular 5 45 445 65 1 0.468 faster 1 1.805373e+06 1.805375e+06 1.806
28 regular 5 46 446 64 1 0.121 faster 1 1.805376e+06 1.805377e+06 1.593
28 regular 5 47 447 64 1 0.172 faster 1 1.805378e+06 1.805380e+06 1.628
28 regular 5 48 448 63 1 0.469 faster 1 1.805381e+06 1.805382e+06 1.571
28 regular 5 49 449 63 1 0.287 faster 1 1.805384e+06 1.805386e+06 1.837
28 regular 5 50 450 62 1 0.579 faster 1 1.805387e+06 1.805389e+06 1.534
28 regular 5 51 451 62 1 0.544 faster 1 1.805390e+06 1.805392e+06 2.224
28 regular 5 52 452 61 1 0.165 faster 1 1.805393e+06 1.805395e+06 1.636
28 regular 5 53 453 59 1 0.313 faster 0 1.805396e+06 1.805398e+06 1.879
28 regular 5 54 454 58 1 0.416 faster 0 1.805399e+06 1.805401e+06 1.715
28 regular 5 55 455 57 1 0.379 faster 0 1.805402e+06 1.805404e+06 1.684
28 regular 5 56 456 56 1 0.191 faster 0 1.805405e+06 1.805406e+06 1.714
28 regular 5 57 457 65 1 0.240 faster 1 1.805407e+06 1.805409e+06 1.912
28 regular 5 58 458 64 1 0.245 faster 1 1.805410e+06 1.805412e+06 1.594
28 regular 5 59 459 64 1 0.116 faster 1 1.805413e+06 1.805414e+06 1.688
28 regular 5 60 460 63 1 0.414 faster 1 1.805416e+06 1.805417e+06 1.655
28 regular 5 61 461 57 1 0.136 faster 0 1.805418e+06 1.805421e+06 2.626
28 regular 5 62 462 64 1 0.478 faster 1 1.805422e+06 1.805424e+06 1.584
28 regular 5 63 463 57 1 0.239 faster 0 1.805425e+06 1.805427e+06 1.655
28 regular 5 64 464 56 1 0.596 faster 0 1.805428e+06 1.805430e+06 1.745
28 regular 5 65 465 55 1 0.397 faster 0 1.805431e+06 1.805433e+06 1.514
28 regular 5 66 466 66 1 0.236 faster 1 1.805434e+06 1.805436e+06 2.123
28 regular 5 67 467 54 1 0.170 faster 0 1.805437e+06 1.805439e+06 1.640
28 regular 5 68 468 53 1 0.453 slower 1 1.805440e+06 1.805442e+06 1.870
28 regular 5 69 469 66 1 0.443 faster 1 1.805443e+06 1.805445e+06 1.469
28 regular 5 70 470 54 1 0.271 faster 0 1.805446e+06 1.805448e+06 1.484
28 regular 5 71 471 53 1 0.424 faster 0 1.805449e+06 1.805451e+06 1.534
28 regular 5 72 472 68 1 0.380 faster 1 1.805452e+06 1.805454e+06 2.556
28 regular 5 73 473 53 1 0.120 faster 0 1.805455e+06 1.805457e+06 1.679
28 regular 5 74 474 52 1 0.596 slower 1 1.805458e+06 1.805460e+06 1.644
28 regular 5 75 475 68 1 0.171 faster 1 1.805461e+06 1.805462e+06 1.494
28 regular 5 76 476 53 1 0.525 faster 0 1.805464e+06 1.805465e+06 1.492
28 regular 5 77 477 52 1 0.181 slower 1 1.805466e+06 1.805468e+06 1.575
28 regular 5 78 478 68 1 0.391 faster 1 1.805469e+06 1.805470e+06 1.478
28 regular 5 79 479 53 1 0.491 faster 0 1.805472e+06 1.805474e+06 1.817
28 regular 5 80 480 52 1 0.461 slower 1 1.805475e+06 1.805476e+06 1.583
28 regular 5 81 481 52 1 0.210 faster 0 1.805477e+06 1.805479e+06 1.626
28 regular 5 82 482 51 1 0.495 faster 0 1.805480e+06 1.805481e+06 1.501
28 regular 5 83 483 50 1 0.410 slower 1 1.805483e+06 1.805484e+06 1.571
28 regular 5 84 484 51 1 0.548 slower 1 1.805485e+06 1.805487e+06 1.680
28 regular 5 85 485 69 1 0.381 faster 1 1.805488e+06 1.805490e+06 1.575
28 regular 5 86 486 68 1 0.188 faster 1 1.805491e+06 1.805492e+06 1.635
28 regular 5 87 487 52 1 0.222 slower 1 1.805493e+06 1.805495e+06 1.699
28 regular 5 88 488 67 1 0.193 faster 1 1.805496e+06 1.805498e+06 1.518
28 regular 5 89 489 67 1 0.164 faster 1 1.805499e+06 1.805500e+06 1.835
28 regular 5 90 490 54 1 0.428 faster 0 1.805502e+06 1.805503e+06 1.606
28 regular 5 91 491 53 1 0.532 slower 1 1.805505e+06 1.805506e+06 1.623
28 regular 5 92 492 53 1 0.218 faster 0 1.805507e+06 1.805509e+06 1.523
28 regular 5 93 493 52 1 0.311 slower 1 1.805510e+06 1.805512e+06 1.617
28 regular 5 94 494 67 1 0.574 faster 1 1.805513e+06 1.805514e+06 1.538
28 regular 5 95 495 53 1 0.549 slower 1 1.805516e+06 1.805518e+06 2.083
28 regular 5 96 496 66 1 0.582 faster 1 1.805519e+06 1.805520e+06 1.505
28 regular 5 97 497 54 1 0.319 slower 1 1.805522e+06 1.805523e+06 1.543
28 regular 5 98 498 55 1 0.550 slower 1 1.805525e+06 1.805526e+06 1.816
28 regular 5 99 499 55 1 0.138 slower 1 1.805527e+06 1.805529e+06 1.850
28 regular 5 100 500 64 1 0.351 faster 1 1.805530e+06 1.805532e+06 1.539
28 irregular 6 1 501 71 1.500000e+00 0.504 slower 0 1.898243e+06 1.898246e+06 2.590
28 irregular 6 2 502 47 1 0.275 slower 1 1.898247e+06 1.898249e+06 1.589
28 irregular 6 3 503 73 2 0.323 faster 1 1.898250e+06 1.898252e+06 2.703
28 irregular 6 4 504 71 1 0.271 faster 1 1.898253e+06 1.898255e+06 1.721
28 irregular 6 5 505 71 1.500000e+00 0.426 faster 1 1.898256e+06 1.898259e+06 2.365
28 irregular 6 6 506 51 2.500000e+00 0.522 slower 1 1.898260e+06 1.898263e+06 3.121
28 irregular 6 7 507 69 2 0.377 faster 1 1.898264e+06 1.898267e+06 2.585
28 irregular 6 8 508 53 1 0.274 slower 1 1.898268e+06 1.898270e+06 1.685
28 irregular 6 9 509 67 1.500000e+00 0.251 faster 1 1.898271e+06 1.898273e+06 2.104
28 irregular 6 10 510 55 1 0.400 slower 1 1.898274e+06 1.898276e+06 1.728
28 irregular 6 11 511 55 3 0.339 faster 0 1.898277e+06 1.898281e+06 3.664
28 irregular 6 12 512 67 2 0.511 faster 1 1.898282e+06 1.898285e+06 2.699
28 irregular 6 13 513 55 2.500000e+00 0.581 faster 0 1.898286e+06 1.898289e+06 3.032
28 irregular 6 14 514 66 2 0.524 faster 1 1.898291e+06 1.898293e+06 2.710
28 irregular 6 15 515 66 2.500000e+00 0.168 faster 1 1.898294e+06 1.898297e+06 3.113
28 irregular 6 16 516 55 1 0.146 slower 1 1.898298e+06 1.898300e+06 1.545
28 irregular 6 17 517 55 2.500000e+00 0.434 slower 1 1.898301e+06 1.898305e+06 3.702
28 irregular 6 18 518 64 2.500000e+00 0.267 faster 1 1.898306e+06 1.898309e+06 3.024
28 irregular 6 19 519 56 1.500000e+00 0.217 faster 0 1.898310e+06 1.898312e+06 2.196
28 irregular 6 20 520 65 1.500000e+00 0.198 faster 1 1.898314e+06 1.898316e+06 2.074
28 irregular 6 21 521 56 2 0.575 slower 1 1.898317e+06 1.898320e+06 2.644
28 irregular 6 22 522 64 3 0.207 faster 1 1.898321e+06 1.898325e+06 3.666
28 irregular 6 23 523 57 3 0.106 slower 1 1.898326e+06 1.898330e+06 3.604
28 irregular 6 24 524 57 1 0.146 slower 1 1.898331e+06 1.898332e+06 1.661
28 irregular 6 25 525 62 3 0.584 faster 1 1.898334e+06 1.898337e+06 3.453
28 irregular 6 26 526 58 2 0.316 slower 1 1.898339e+06 1.898341e+06 2.610
28 irregular 6 27 527 59 1 0.391 slower 1 1.898342e+06 1.898344e+06 1.675
28 irregular 6 28 528 61 1 0.119 slower 0 1.898345e+06 1.898346e+06 1.587
28 irregular 6 29 529 62 2.500000e+00 0.596 faster 1 1.898348e+06 1.898351e+06 3.511
28 irregular 6 30 530 59 1.500000e+00 0.441 slower 1 1.898352e+06 1.898355e+06 2.280
28 irregular 6 31 531 59 1.500000e+00 0.161 slower 1 1.898356e+06 1.898358e+06 2.004
28 irregular 6 32 532 59 1.500000e+00 0.515 slower 1 1.898359e+06 1.898361e+06 1.956
28 irregular 6 33 533 61 3 0.300 faster 1 1.898362e+06 1.898365e+06 3.604
28 irregular 6 34 534 59 1.500000e+00 0.595 slower 1 1.898367e+06 1.898369e+06 2.198
28 irregular 6 35 535 61 1 0.566 faster 1 1.898371e+06 1.898372e+06 1.729
28 irregular 6 36 536 61 2.500000e+00 0.344 faster 1 1.898374e+06 1.898377e+06 3.326
28 irregular 6 37 537 61 3 0.585 faster 1 1.898379e+06 1.898383e+06 3.907
28 irregular 6 38 538 61 1 0.267 slower 0 1.898385e+06 1.898386e+06 1.523
28 irregular 6 39 539 62 2 0.241 faster 1 1.898388e+06 1.898390e+06 2.702
28 irregular 6 40 540 62 3 0.505 slower 0 1.898392e+06 1.898395e+06 3.751
28 irregular 6 41 541 57 2.500000e+00 0.219 faster 0 1.898397e+06 1.898400e+06 3.074
28 irregular 6 42 542 56 3 0.297 faster 0 1.898401e+06 1.898404e+06 3.761
28 irregular 6 43 543 65 1 0.139 slower 0 1.898406e+06 1.898407e+06 1.836
28 irregular 6 44 544 66 1.500000e+00 0.186 slower 0 1.898409e+06 1.898411e+06 2.547
28 irregular 6 45 545 53 1.500000e+00 0.118 faster 0 1.898412e+06 1.898415e+06 2.975
28 irregular 6 46 546 52 2 0.326 slower 1 1.898417e+06 1.898420e+06 2.571
28 irregular 6 47 547 53 2.500000e+00 0.336 slower 1 1.898421e+06 1.898424e+06 3.144
28 irregular 6 48 548 67 2 0.124 slower 0 1.898426e+06 1.898428e+06 2.701
28 irregular 6 49 549 68 2 0.161 faster 1 1.898430e+06 1.898432e+06 2.641
28 irregular 6 50 550 67 3 0.287 faster 1 1.898433e+06 1.898437e+06 3.939
28 irregular 6 51 551 53 3 0.584 slower 1 1.898439e+06 1.898443e+06 3.672
28 irregular 6 52 552 54 2.500000e+00 0.401 slower 1 1.898444e+06 1.898448e+06 3.413
28 irregular 6 53 553 66 1 0.484 faster 1 1.898449e+06 1.898451e+06 1.764
28 irregular 6 54 554 65 2.500000e+00 0.161 faster 1 1.898452e+06 1.898455e+06 3.110
28 irregular 6 55 555 65 1 0.131 faster 1 1.898456e+06 1.898458e+06 1.568
28 irregular 6 56 556 64 2 0.580 faster 1 1.898459e+06 1.898462e+06 2.803
28 irregular 6 57 557 56 2 0.381 slower 1 1.898463e+06 1.898466e+06 2.645
28 irregular 6 58 558 63 1 0.311 slower 0 1.898467e+06 1.898469e+06 1.644
28 irregular 6 59 559 56 2 0.146 slower 1 1.898470e+06 1.898473e+06 2.836
28 irregular 6 60 560 56 2 0.525 slower 1 1.898476e+06 1.898479e+06 2.684
28 irregular 6 61 561 63 3 0.239 faster 1 1.898480e+06 1.898484e+06 3.598
28 irregular 6 62 562 63 3 0.576 faster 1 1.898486e+06 1.898490e+06 3.553
28 irregular 6 63 563 58 2.500000e+00 0.117 slower 1 1.898490e+06 1.898493e+06 3.077
28 irregular 6 64 564 58 1 0.533 slower 1 1.898495e+06 1.898497e+06 1.729
28 irregular 6 65 565 59 2 0.517 faster 0 1.898498e+06 1.898501e+06 2.636
28 irregular 6 66 566 58 1 0.263 slower 1 1.898502e+06 1.898504e+06 1.966
28 irregular 6 67 567 58 1 0.209 faster 0 1.898507e+06 1.898509e+06 1.838
28 irregular 6 68 568 57 1.500000e+00 0.526 slower 1 1.898510e+06 1.898513e+06 2.536
28 irregular 6 69 569 62 1.500000e+00 0.318 faster 1 1.898516e+06 1.898518e+06 1.987
28 irregular 6 70 570 62 1.500000e+00 0.217 slower 0 1.898519e+06 1.898521e+06 2.105
28 irregular 6 71 571 57 2.500000e+00 0.389 faster 0 1.898523e+06 1.898526e+06 3.195
28 irregular 6 72 572 64 1.500000e+00 0.292 slower 0 1.898527e+06 1.898529e+06 2.134
28 irregular 6 73 573 55 3 0.600 slower 1 1.898531e+06 1.898535e+06 3.560
28 irregular 6 74 574 56 2.500000e+00 0.227 slower 1 1.898536e+06 1.898539e+06 3.141
28 irregular 6 75 575 56 1 0.439 faster 0 1.898543e+06 1.898545e+06 1.989
28 irregular 6 76 576 55 1.500000e+00 0.358 slower 1 1.898546e+06 1.898548e+06 2.104
28 irregular 6 77 577 56 2 0.573 faster 0 1.898549e+06 1.898552e+06 2.693
28 irregular 6 78 578 55 3 0.202 slower 1 1.898553e+06 1.898557e+06 3.752
28 irregular 6 79 579 55 1.500000e+00 0.450 faster 0 1.898558e+06 1.898560e+06 2.078
28 irregular 6 80 580 66 2.500000e+00 0.326 faster 1 1.898562e+06 1.898566e+06 4.148
28 irregular 6 81 581 65 3 0.368 slower 0 1.898567e+06 1.898571e+06 3.868
28 irregular 6 82 582 54 3 0.258 faster 0 1.898575e+06 1.898579e+06 3.817
28 irregular 6 83 583 53 3 0.204 slower 1 1.898580e+06 1.898584e+06 3.838
28 irregular 6 84 584 67 2 0.209 faster 1 1.898588e+06 1.898591e+06 2.698
28 irregular 6 85 585 54 2.500000e+00 0.471 slower 1 1.898592e+06 1.898596e+06 3.401
28 irregular 6 86 586 66 2.500000e+00 0.150 faster 1 1.898600e+06 1.898603e+06 3.154
28 irregular 6 87 587 55 1.500000e+00 0.262 slower 1 1.898605e+06 1.898607e+06 2.299
28 irregular 6 88 588 65 2 0.321 faster 1 1.898609e+06 1.898611e+06 2.466
28 irregular 6 89 589 64 1 0.271 faster 1 1.898613e+06 1.898615e+06 1.940
28 irregular 6 90 590 64 2.500000e+00 0.442 slower 0 1.898616e+06 1.898619e+06 3.168
28 irregular 6 91 591 65 1.500000e+00 0.413 faster 1 1.898621e+06 1.898623e+06 2.027
28 irregular 6 92 592 56 2 0.474 slower 1 1.898624e+06 1.898627e+06 2.767
28 irregular 6 93 593 64 2.500000e+00 0.553 faster 1 1.898630e+06 1.898633e+06 3.400
28 irregular 6 94 594 63 1 0.586 slower 0 1.898635e+06 1.898636e+06 1.613
28 irregular 6 95 595 64 1.500000e+00 0.373 faster 1 1.898638e+06 1.898640e+06 2.137
28 irregular 6 96 596 64 2.500000e+00 0.384 slower 0 1.898641e+06 1.898644e+06 3.149
28 irregular 6 97 597 55 3 0.139 faster 0 1.898646e+06 1.898650e+06 3.518
28 irregular 6 98 598 66 3 0.373 slower 0 1.898651e+06 1.898655e+06 4.037
28 irregular 6 99 599 53 2 0.568 faster 0 1.898657e+06 1.898660e+06 2.652
28 irregular 6 100 600 52 3 0.338 slower 1 1.898662e+06 1.898666e+06 3.789
28 regular 7 1 601 51 3 0.426 slower 1 1.907123e+06 1.907127e+06 4.267
28 regular 7 2 602 51 3 0.522 slower 1 1.907128e+06 1.907132e+06 3.618
28 regular 7 3 603 53 3 0.377 slower 1 1.907133e+06 1.907137e+06 4.112
28 regular 7 4 604 53 3 0.274 faster 0 1.907138e+06 1.907142e+06 3.674
28 regular 7 5 605 69 3 0.251 faster 1 1.907143e+06 1.907146e+06 3.528
28 regular 7 6 606 67 3 0.400 faster 1 1.907148e+06 1.907152e+06 3.536
28 regular 7 7 607 53 3 0.339 faster 0 1.907153e+06 1.907157e+06 3.432
28 regular 7 8 608 51 3 0.511 slower 1 1.907158e+06 1.907162e+06 4.804
28 regular 7 9 609 68 3 0.581 faster 1 1.907164e+06 1.907168e+06 3.659
28 regular 7 10 610 68 3 0.524 faster 1 1.907169e+06 1.907173e+06 3.595
28 regular 7 11 611 67 3 0.168 faster 1 1.907174e+06 1.907178e+06 3.538
28 regular 7 12 612 53 3 0.146 slower 1 1.907179e+06 1.907182e+06 3.697
28 regular 7 13 613 54 3 0.434 faster 0 1.907184e+06 1.907187e+06 3.504
28 regular 7 14 614 67 3 0.267 faster 1 1.907188e+06 1.907193e+06 5.079
28 regular 7 15 615 53 3 0.217 faster 0 1.907195e+06 1.907199e+06 4.558
28 regular 7 16 616 52 3 0.198 faster 0 1.907201e+06 1.907204e+06 3.729
28 regular 7 17 617 51 3 0.575 faster 0 1.907206e+06 1.907210e+06 4.009
28 regular 7 18 618 70 3 0.207 faster 1 1.907210e+06 1.907214e+06 3.530
28 regular 7 19 619 51 3 0.106 slower 1 1.907215e+06 1.907219e+06 4.032
28 regular 7 20 620 69 3 0.146 faster 1 1.907220e+06 1.907223e+06 3.732
28 regular 7 21 621 52 3 0.584 faster 0 1.907225e+06 1.907228e+06 3.597
28 regular 7 22 622 51 3 0.316 slower 1 1.907229e+06 1.907233e+06 3.708
28 regular 7 23 623 51 3 0.391 faster 0 1.907234e+06 1.907238e+06 3.589
28 regular 7 24 624 50 3 0.119 faster 0 1.907239e+06 1.907243e+06 3.981
28 regular 7 25 625 71 3 0.596 faster 1 1.907244e+06 1.907248e+06 3.559
28 regular 7 26 626 70 3 0.441 faster 1 1.907249e+06 1.907253e+06 3.577
28 regular 7 27 627 70 3 0.161 faster 1 1.907254e+06 1.907258e+06 3.891
28 regular 7 28 628 51 3 0.515 slower 1 1.907260e+06 1.907263e+06 3.545
28 regular 7 29 629 51 3 0.300 faster 0 1.907265e+06 1.907268e+06 3.448
28 regular 7 30 630 70 3 0.595 faster 1 1.907269e+06 1.907273e+06 3.868
28 regular 7 31 631 69 3 0.566 faster 1 1.907275e+06 1.907279e+06 3.533
28 regular 7 32 632 69 3 0.344 faster 1 1.907280e+06 1.907283e+06 3.741
28 regular 7 33 633 52 3 0.585 faster 0 1.907285e+06 1.907288e+06 3.520
28 regular 7 34 634 69 3 0.267 faster 1 1.907289e+06 1.907293e+06 3.501
28 regular 7 35 635 69 3 0.241 faster 1 1.907294e+06 1.907298e+06 3.592
28 regular 7 36 636 68 3 0.505 faster 1 1.907299e+06 1.907303e+06 3.625
28 regular 7 37 637 52 3 0.219 faster 0 1.907304e+06 1.907308e+06 3.806
28 regular 7 38 638 51 3 0.297 faster 0 1.907309e+06 1.907313e+06 3.811
28 regular 7 39 639 50 3 0.139 slower 1 1.907314e+06 1.907318e+06 4.029
28 regular 7 40 640 51 3 0.186 slower 1 1.907319e+06 1.907323e+06 3.916
28 regular 7 41 641 69 3 0.118 faster 1 1.907324e+06 1.907327e+06 3.455
28 regular 7 42 642 68 3 0.326 faster 1 1.907328e+06 1.907332e+06 3.759
28 regular 7 43 643 52 3 0.336 faster 0 1.907334e+06 1.907337e+06 3.611
28 regular 7 44 644 69 3 0.124 faster 1 1.907338e+06 1.907342e+06 3.494
28 regular 7 45 645 52 3 0.161 faster 0 1.907343e+06 1.907346e+06 3.600
28 regular 7 46 646 69 3 0.287 faster 1 1.907348e+06 1.907351e+06 3.593
28 regular 7 47 647 51 3 0.584 slower 1 1.907353e+06 1.907357e+06 3.635
28 regular 7 48 648 68 3 0.401 faster 1 1.907358e+06 1.907362e+06 3.740
28 regular 7 49 649 68 3 0.484 faster 1 1.907363e+06 1.907367e+06 3.552
28 regular 7 50 650 67 3 0.161 slower 0 1.907368e+06 1.907371e+06 3.630
28 regular 7 51 651 52 3 0.131 slower 1 1.907373e+06 1.907377e+06 4.345
28 regular 7 52 652 68 3 0.580 faster 1 1.907379e+06 1.907383e+06 4.043
28 regular 7 53 653 53 3 0.381 slower 1 1.907384e+06 1.907388e+06 3.944
28 regular 7 54 654 53 3 0.311 faster 0 1.907389e+06 1.907393e+06 3.686
28 regular 7 55 655 52 3 0.146 faster 0 1.907394e+06 1.907398e+06 3.647
28 regular 7 56 656 69 3 0.525 faster 1 1.907399e+06 1.907402e+06 3.552
28 regular 7 57 657 52 3 0.239 slower 1 1.907403e+06 1.907407e+06 3.573
28 regular 7 58 658 52 3 0.576 faster 0 1.907409e+06 1.907412e+06 3.610
28 regular 7 59 659 51 3 0.117 slower 1 1.907413e+06 1.907419e+06 5.864
28 regular 7 60 660 52 3 0.533 faster 0 1.907420e+06 1.907424e+06 3.747
28 regular 7 61 661 69 3 0.517 faster 1 1.907425e+06 1.907429e+06 3.651
28 regular 7 62 662 69 3 0.263 faster 1 1.907431e+06 1.907435e+06 4.361
28 regular 7 63 663 68 3 0.209 faster 1 1.907436e+06 1.907440e+06 4.232
28 regular 7 64 664 68 3 0.526 faster 1 1.907442e+06 1.907446e+06 3.842
28 regular 7 65 665 53 3 0.318 slower 1 1.907447e+06 1.907451e+06 3.739
28 regular 7 66 666 67 3 0.217 faster 1 1.907451e+06 1.907455e+06 3.521
28 regular 7 67 667 66 3 0.389 faster 1 1.907456e+06 1.907460e+06 3.622
28 regular 7 68 668 66 3 0.292 slower 0 1.907461e+06 1.907465e+06 3.959
28 regular 7 69 669 53 3 0.600 slower 1 1.907467e+06 1.907471e+06 3.957
28 regular 7 70 670 66 3 0.227 faster 1 1.907471e+06 1.907475e+06 3.562
28 regular 7 71 671 54 3 0.439 faster 0 1.907477e+06 1.907480e+06 3.556
28 regular 7 72 672 67 3 0.358 slower 0 1.907481e+06 1.907486e+06 4.923
28 regular 7 73 673 68 3 0.573 faster 1 1.907489e+06 1.907493e+06 4.164
28 regular 7 74 674 67 3 0.202 faster 1 1.907494e+06 1.907497e+06 3.500
28 regular 7 75 675 53 3 0.450 slower 1 1.907498e+06 1.907502e+06 3.607
28 regular 7 76 676 54 3 0.326 faster 0 1.907503e+06 1.907507e+06 3.733
28 regular 7 77 677 67 3 0.368 faster 1 1.907508e+06 1.907512e+06 3.804
28 regular 7 78 678 67 3 0.258 slower 0 1.907513e+06 1.907517e+06 4.871
28 regular 7 79 679 52 3 0.204 slower 1 1.907518e+06 1.907523e+06 4.549
28 regular 7 80 680 67 3 0.209 faster 1 1.907524e+06 1.907527e+06 3.722
28 regular 7 81 681 67 3 0.471 faster 1 1.907529e+06 1.907533e+06 4.036
28 regular 7 82 682 54 3 0.150 faster 0 1.907534e+06 1.907537e+06 3.589
28 regular 7 83 683 53 3 0.262 slower 1 1.907538e+06 1.907544e+06 5.292
28 regular 7 84 684 67 3 0.321 faster 1 1.907545e+06 1.907548e+06 3.519
28 regular 7 85 685 66 3 0.271 faster 1 1.907549e+06 1.907553e+06 3.598
28 regular 7 86 686 54 3 0.442 slower 1 1.907555e+06 1.907558e+06 3.883
28 regular 7 87 687 65 3 0.413 faster 1 1.907560e+06 1.907563e+06 3.560
28 regular 7 88 688 55 3 0.474 faster 0 1.907564e+06 1.907568e+06 3.630
28 regular 7 89 689 66 3 0.553 faster 1 1.907570e+06 1.907573e+06 3.595
28 regular 7 90 690 65 3 0.586 faster 1 1.907575e+06 1.907579e+06 3.629
28 regular 7 91 691 65 3 0.373 faster 1 1.907580e+06 1.907584e+06 4.252
28 regular 7 92 692 56 3 0.384 faster 0 1.907585e+06 1.907589e+06 3.486
28 regular 7 93 693 55 3 0.139 slower 1 1.907590e+06 1.907594e+06 4.295
28 regular 7 94 694 55 3 0.373 faster 0 1.907595e+06 1.907599e+06 3.523
28 regular 7 95 695 54 3 0.568 slower 1 1.907600e+06 1.907604e+06 4.361
28 regular 7 96 696 55 3 0.338 faster 0 1.907605e+06 1.907609e+06 3.541
28 regular 7 97 697 66 3 0.245 faster 1 1.907610e+06 1.907614e+06 3.624
28 regular 7 98 698 66 3 0.143 faster 1 1.907615e+06 1.907619e+06 3.928
28 regular 7 99 699 65 3 0.477 faster 1 1.907620e+06 1.907623e+06 3.410
28 regular 7 100 700 55 3 0.268 faster 0 1.907625e+06 1.907628e+06 3.512
28 irregular 8 1 701 66 2 0.436 faster 1 1.907648e+06 1.907650e+06 2.799
28 irregular 8 2 702 55 3 0.272 faster 0 1.907651e+06 1.907655e+06 3.544
28 irregular 8 3 703 66 1.500000e+00 0.172 faster 1 1.907656e+06 1.907658e+06 2.361
28 irregular 8 4 704 54 3 0.251 faster 0 1.907659e+06 1.907663e+06 3.557
28 irregular 8 5 705 53 2 0.108 faster 0 1.907664e+06 1.907666e+06 2.445
28 irregular 8 6 706 52 3 0.335 faster 0 1.907668e+06 1.907671e+06 3.409
28 irregular 8 7 707 69 1 0.296 faster 1 1.907672e+06 1.907674e+06 1.612
28 irregular 8 8 708 68 1.500000e+00 0.402 faster 1 1.907675e+06 1.907677e+06 2.051
28 irregular 8 9 709 52 3 0.363 faster 0 1.907679e+06 1.907683e+06 3.619
28 irregular 8 10 710 69 3 0.302 faster 1 1.907684e+06 1.907688e+06 3.462
28 irregular 8 11 711 68 1.500000e+00 0.119 faster 1 1.907689e+06 1.907691e+06 2.045
28 irregular 8 12 712 68 2 0.156 faster 1 1.907692e+06 1.907694e+06 2.514
28 irregular 8 13 713 53 2.500000e+00 0.292 faster 0 1.907695e+06 1.907698e+06 2.886
28 irregular 8 14 714 68 1 0.274 faster 1 1.907699e+06 1.907701e+06 1.564
28 irregular 8 15 715 52 2.500000e+00 0.496 faster 0 1.907702e+06 1.907705e+06 2.912
28 irregular 8 16 716 69 1.500000e+00 0.321 faster 1 1.907708e+06 1.907710e+06 2.121
28 irregular 8 17 717 52 1 0.246 faster 0 1.907711e+06 1.907713e+06 1.894
28 irregular 8 18 718 69 2 0.512 faster 1 1.907715e+06 1.907717e+06 2.736
28 irregular 8 19 719 51 3 0.448 slower 1 1.907720e+06 1.907724e+06 4.226
28 irregular 8 20 720 52 1.500000e+00 0.126 faster 0 1.907725e+06 1.907728e+06 3.059
28 irregular 8 21 721 51 2.500000e+00 0.533 faster 0 1.907730e+06 1.907733e+06 3.257
28 irregular 8 22 722 70 2 0.466 faster 1 1.907735e+06 1.907737e+06 2.636
28 irregular 8 23 723 50 1.500000e+00 0.480 faster 0 1.907739e+06 1.907741e+06 2.025
28 irregular 8 24 724 49 2.500000e+00 0.369 slower 1 1.907742e+06 1.907745e+06 3.081
28 irregular 8 25 725 70 1 0.426 slower 0 1.907747e+06 1.907749e+06 1.883
28 irregular 8 26 726 49 3 0.496 slower 1 1.907750e+06 1.907754e+06 3.735
28 irregular 8 27 727 71 1.500000e+00 0.562 faster 1 1.907755e+06 1.907757e+06 2.140
28 irregular 8 28 728 70 1 0.553 faster 1 1.907759e+06 1.907761e+06 1.857
28 irregular 8 29 729 50 1 0.514 slower 1 1.907762e+06 1.907764e+06 1.896
28 irregular 8 30 730 51 2.500000e+00 0.589 slower 1 1.907765e+06 1.907769e+06 3.131
28 irregular 8 31 731 51 2 0.447 slower 1 1.907770e+06 1.907773e+06 2.537
28 irregular 8 32 732 68 2 0.582 slower 0 1.907774e+06 1.907777e+06 3.341
28 irregular 8 33 733 51 1 0.459 faster 0 1.907779e+06 1.907781e+06 2.082
28 irregular 8 34 734 50 3 0.501 faster 0 1.907783e+06 1.907787e+06 3.991
28 irregular 8 35 735 49 1 0.416 slower 1 1.907789e+06 1.907790e+06 1.685
28 irregular 8 36 736 71 3 0.273 faster 1 1.907791e+06 1.907795e+06 3.571
28 irregular 8 37 737 50 2 0.346 slower 1 1.907796e+06 1.907799e+06 2.794
28 irregular 8 38 738 50 1.500000e+00 0.180 slower 1 1.907800e+06 1.907802e+06 2.221
28 irregular 8 39 739 51 3 0.329 slower 1 1.907803e+06 1.907807e+06 3.621
28 irregular 8 40 740 69 1.500000e+00 0.187 faster 1 1.907808e+06 1.907810e+06 2.230
28 irregular 8 41 741 68 2.500000e+00 0.287 faster 1 1.907811e+06 1.907814e+06 3.137
28 irregular 8 42 742 52 2 0.293 faster 0 1.907815e+06 1.907818e+06 2.486
28 irregular 8 43 743 51 1.500000e+00 0.406 slower 1 1.907819e+06 1.907822e+06 2.633
28 irregular 8 44 744 68 3 0.102 faster 1 1.907823e+06 1.907826e+06 3.669
28 irregular 8 45 745 52 2 0.382 faster 0 1.907827e+06 1.907830e+06 2.592
28 irregular 8 46 746 69 3 0.276 faster 1 1.907831e+06 1.907835e+06 3.547
28 irregular 8 47 747 68 3 0.446 faster 1 1.907836e+06 1.907840e+06 3.566
28 irregular 8 48 748 68 2 0.235 faster 1 1.907841e+06 1.907844e+06 2.573
28 irregular 8 49 749 67 1 0.238 faster 1 1.907845e+06 1.907847e+06 1.689
28 irregular 8 50 750 67 3 0.383 faster 1 1.907848e+06 1.907852e+06 3.511
28 irregular 8 51 751 66 2.500000e+00 0.521 faster 1 1.907854e+06 1.907857e+06 3.045
28 irregular 8 52 752 66 2.500000e+00 0.487 faster 1 1.907858e+06 1.907861e+06 2.953
28 irregular 8 53 753 65 3 0.364 faster 1 1.907863e+06 1.907866e+06 3.521
28 irregular 8 54 754 55 2 0.498 faster 0 1.907867e+06 1.907870e+06 2.751
28 irregular 8 55 755 66 3 0.521 faster 1 1.907871e+06 1.907875e+06 3.597
28 irregular 8 56 756 55 2 0.598 slower 1 1.907877e+06 1.907879e+06 2.664
28 irregular 8 57 757 65 1 0.368 faster 1 1.907881e+06 1.907882e+06 1.607
28 irregular 8 58 758 64 1.500000e+00 0.418 faster 1 1.907884e+06 1.907886e+06 1.986
28 irregular 8 59 759 56 2 0.541 slower 1 1.907887e+06 1.907890e+06 2.720
28 irregular 8 60 760 63 2.500000e+00 0.118 faster 1 1.907891e+06 1.907894e+06 3.014
28 irregular 8 61 761 63 3 0.438 faster 1 1.907896e+06 1.907899e+06 3.523
28 irregular 8 62 762 58 2.500000e+00 0.129 slower 1 1.907900e+06 1.907904e+06 3.574
28 irregular 8 63 763 58 2.500000e+00 0.143 faster 0 1.907905e+06 1.907908e+06 3.279
28 irregular 8 64 764 57 1.500000e+00 0.177 slower 1 1.907909e+06 1.907911e+06 2.082
28 irregular 8 65 765 62 1.500000e+00 0.495 slower 0 1.907913e+06 1.907915e+06 2.299
28 irregular 8 66 766 57 2.500000e+00 0.575 faster 0 1.907916e+06 1.907919e+06 3.086
28 irregular 8 67 767 56 1 0.349 slower 1 1.907921e+06 1.907923e+06 2.677
28 irregular 8 68 768 64 1 0.230 slower 0 1.907925e+06 1.907926e+06 1.710
28 irregular 8 69 769 65 2.500000e+00 0.596 faster 1 1.907928e+06 1.907931e+06 3.150
28 irregular 8 70 770 56 2 0.102 slower 1 1.907933e+06 1.907935e+06 2.668
28 irregular 8 71 771 56 1 0.340 slower 1 1.907936e+06 1.907938e+06 1.619
28 irregular 8 72 772 63 2.500000e+00 0.436 faster 1 1.907939e+06 1.907942e+06 3.027
28 irregular 8 73 773 57 1 0.296 slower 1 1.907945e+06 1.907947e+06 1.775
28 irregular 8 74 774 62 2 0.210 faster 1 1.907948e+06 1.907950e+06 2.516
28 irregular 8 75 775 62 2.500000e+00 0.418 faster 1 1.907952e+06 1.907955e+06 3.315
28 irregular 8 76 776 61 2 0.430 slower 0 1.907956e+06 1.907959e+06 2.695
28 irregular 8 77 777 58 1 0.408 slower 1 1.907960e+06 1.907962e+06 1.765
28 irregular 8 78 778 58 2 0.132 slower 1 1.907963e+06 1.907966e+06 2.503
28 irregular 8 79 779 61 2 0.496 slower 0 1.907967e+06 1.907970e+06 2.531
28 irregular 8 80 780 58 1.500000e+00 0.389 faster 0 1.907971e+06 1.907973e+06 2.261
28 irregular 8 81 781 63 1 0.168 slower 0 1.907974e+06 1.907976e+06 1.529
28 irregular 8 82 782 56 1.500000e+00 0.597 slower 1 1.907977e+06 1.907979e+06 2.176
28 irregular 8 83 783 56 1.500000e+00 0.190 slower 1 1.907980e+06 1.907982e+06 2.041
28 irregular 8 84 784 57 3 0.524 slower 1 1.907984e+06 1.907987e+06 3.523
28 irregular 8 85 785 63 2.500000e+00 0.485 faster 1 1.907989e+06 1.907992e+06 3.171
28 irregular 8 86 786 62 2 0.248 faster 1 1.907993e+06 1.907996e+06 2.742
28 irregular 8 87 787 58 1 0.220 slower 1 1.907997e+06 1.907999e+06 1.857
28 irregular 8 88 788 61 3 0.113 slower 0 1.908001e+06 1.908004e+06 3.704
28 irregular 8 89 789 62 2.500000e+00 0.123 faster 1 1.908005e+06 1.908009e+06 3.546
28 irregular 8 90 790 58 1 0.501 slower 1 1.908011e+06 1.908012e+06 1.845
28 irregular 8 91 791 59 1.500000e+00 0.217 faster 0 1.908013e+06 1.908016e+06 2.416
28 irregular 8 92 792 58 2.500000e+00 0.238 faster 0 1.908017e+06 1.908021e+06 3.951
28 irregular 8 93 793 63 1.500000e+00 0.378 faster 1 1.908023e+06 1.908026e+06 2.598
28 irregular 8 94 794 63 1.500000e+00 0.130 faster 1 1.908030e+06 1.908032e+06 2.196
28 irregular 8 95 795 62 1 0.196 slower 0 1.908033e+06 1.908034e+06 1.644
28 irregular 8 96 796 63 2.500000e+00 0.519 faster 1 1.908037e+06 1.908040e+06 2.946
28 irregular 8 97 797 57 1.500000e+00 0.346 slower 1 1.908042e+06 1.908044e+06 2.139
28 irregular 8 98 798 62 1 0.579 slower 0 1.908047e+06 1.908049e+06 1.574
28 irregular 8 99 799 57 3 0.111 faster 0 1.908050e+06 1.908053e+06 3.621
28 irregular 8 100 800 56 2.500000e+00 0.584 faster 0 1.908055e+06 1.908058e+06 3.259
28 regular 9 1 801 65 1.500000e+00 0.379 faster 1 1.908181e+06 1.908183e+06 1.989
28 regular 9 2 802 65 1.500000e+00 0.123 faster 1 1.908184e+06 1.908186e+06 2.126
28 regular 9 3 803 56 1.500000e+00 0.397 faster 0 1.908187e+06 1.908189e+06 1.954
28 regular 9 4 804 65 1.500000e+00 0.527 faster 1 1.908191e+06 1.908193e+06 2.007
28 regular 9 5 805 55 1.500000e+00 0.179 faster 0 1.908194e+06 1.908196e+06 2.028
28 regular 9 6 806 66 1.500000e+00 0.335 slower 0 1.908197e+06 1.908199e+06 2.207
28 regular 9 7 807 67 1.500000e+00 0.274 faster 1 1.908200e+06 1.908202e+06 1.999
28 regular 9 8 808 54 1.500000e+00 0.231 faster 0 1.908204e+06 1.908206e+06 2.104
28 regular 9 9 809 53 1.500000e+00 0.420 faster 0 1.908207e+06 1.908209e+06 2.554
28 regular 9 10 810 68 1.500000e+00 0.341 faster 1 1.908211e+06 1.908213e+06 2.066
28 regular 9 11 811 52 1.500000e+00 0.507 slower 1 1.908214e+06 1.908216e+06 2.046
28 regular 9 12 812 53 1.500000e+00 0.148 slower 1 1.908217e+06 1.908219e+06 2.131
28 regular 9 13 813 53 1.500000e+00 0.258 slower 1 1.908220e+06 1.908222e+06 2.115
28 regular 9 14 814 66 1.500000e+00 0.107 faster 1 1.908223e+06 1.908225e+06 1.940
28 regular 9 15 815 54 1.500000e+00 0.276 faster 0 1.908226e+06 1.908228e+06 2.062
28 regular 9 16 816 53 1.500000e+00 0.136 faster 0 1.908229e+06 1.908231e+06 2.084
28 regular 9 17 817 52 1.500000e+00 0.450 slower 1 1.908232e+06 1.908235e+06 2.197
28 regular 9 18 818 53 1.500000e+00 0.290 faster 0 1.908236e+06 1.908238e+06 2.154
28 regular 9 19 819 68 1.500000e+00 0.111 slower 0 1.908239e+06 1.908241e+06 2.168
28 regular 9 20 820 69 1.500000e+00 0.532 faster 1 1.908242e+06 1.908244e+06 2.258
28 regular 9 21 821 51 1.500000e+00 0.303 faster 0 1.908246e+06 1.908248e+06 2.294
28 regular 9 22 822 70 1.500000e+00 0.393 slower 0 1.908249e+06 1.908251e+06 2.154
28 regular 9 23 823 71 1.500000e+00 0.117 faster 1 1.908252e+06 1.908254e+06 2.177
28 regular 9 24 824 70 1.500000e+00 0.167 slower 0 1.908255e+06 1.908257e+06 2.215
28 regular 9 25 825 71 1.500000e+00 0.435 faster 1 1.908258e+06 1.908260e+06 1.961
28 regular 9 26 826 49 1.500000e+00 0.429 slower 1 1.908262e+06 1.908264e+06 2.028
28 regular 9 27 827 50 1.500000e+00 0.261 slower 1 1.908265e+06 1.908267e+06 2.064
28 regular 9 28 828 70 1.500000e+00 0.278 faster 1 1.908268e+06 1.908270e+06 2.053
28 regular 9 29 829 51 1.500000e+00 0.185 faster 0 1.908271e+06 1.908273e+06 2.153
28 regular 9 30 830 70 1.500000e+00 0.270 slower 0 1.908274e+06 1.908277e+06 2.101
28 regular 9 31 831 71 1.500000e+00 0.309 slower 0 1.908278e+06 1.908280e+06 2.103
28 regular 9 32 832 48 1.500000e+00 0.470 slower 1 1.908281e+06 1.908283e+06 2.081
28 regular 9 33 833 48 1.500000e+00 0.129 slower 1 1.908284e+06 1.908286e+06 2.042
28 regular 9 34 834 71 1.500000e+00 0.111 slower 0 1.908287e+06 1.908289e+06 2.120
28 regular 9 35 835 48 1.500000e+00 0.379 slower 1 1.908290e+06 1.908292e+06 2.001
28 regular 9 36 836 48 1.500000e+00 0.547 slower 1 1.908294e+06 1.908296e+06 2.030
28 regular 9 37 837 71 1.500000e+00 0.451 faster 1 1.908297e+06 1.908300e+06 2.294
28 regular 9 38 838 71 1.500000e+00 0.175 faster 1 1.908301e+06 1.908303e+06 2.182
28 regular 9 39 839 70 1.500000e+00 0.497 slower 0 1.908304e+06 1.908306e+06 2.328
28 regular 9 40 840 71 1.500000e+00 0.141 faster 1 1.908307e+06 1.908309e+06 2.047
28 regular 9 41 841 49 1.500000e+00 0.429 slower 1 1.908311e+06 1.908313e+06 2.137
28 regular 9 42 842 50 1.500000e+00 0.147 slower 1 1.908314e+06 1.908316e+06 2.044
28 regular 9 43 843 50 1.500000e+00 0.364 slower 1 1.908317e+06 1.908319e+06 2.334
28 regular 9 44 844 69 1.500000e+00 0.241 slower 0 1.908321e+06 1.908323e+06 2.095
28 regular 9 45 845 70 1.500000e+00 0.190 slower 0 1.908323e+06 1.908326e+06 2.559
28 regular 9 46 846 49 1.500000e+00 0.575 slower 1 1.908327e+06 1.908330e+06 2.255
28 regular 9 47 847 49 1.500000e+00 0.113 slower 1 1.908331e+06 1.908333e+06 2.019
28 regular 9 48 848 50 1.500000e+00 0.204 slower 1 1.908334e+06 1.908336e+06 2.095
28 regular 9 49 849 50 1.500000e+00 0.286 faster 0 1.908337e+06 1.908339e+06 2.141
28 regular 9 50 850 49 1.500000e+00 0.210 faster 0 1.908340e+06 1.908343e+06 2.216
28 regular 9 51 851 48 1.500000e+00 0.495 slower 1 1.908344e+06 1.908346e+06 2.294
28 regular 9 52 852 71 1.500000e+00 0.228 faster 1 1.908348e+06 1.908350e+06 2.236
28 regular 9 53 853 71 1.500000e+00 0.512 faster 1 1.908351e+06 1.908353e+06 2.314
28 regular 9 54 854 50 1.500000e+00 0.260 slower 1 1.908354e+06 1.908357e+06 2.311
28 regular 9 55 855 50 1.500000e+00 0.393 slower 1 1.908358e+06 1.908360e+06 2.207
28 regular 9 56 856 69 1.500000e+00 0.547 slower 0 1.908361e+06 1.908363e+06 2.147
28 regular 9 57 857 70 1.500000e+00 0.504 faster 1 1.908365e+06 1.908367e+06 2.200
28 regular 9 58 858 50 1.500000e+00 0.389 slower 1 1.908368e+06 1.908370e+06 2.119
28 regular 9 59 859 69 1.500000e+00 0.500 slower 0 1.908371e+06 1.908373e+06 2.078
28 regular 9 60 860 50 1.500000e+00 0.463 slower 1 1.908375e+06 1.908378e+06 2.392
28 regular 9 61 861 50 1.500000e+00 0.581 faster 0 1.908380e+06 1.908382e+06 2.077
28 regular 9 62 862 49 1.500000e+00 0.593 slower 1 1.908384e+06 1.908386e+06 2.086
28 regular 9 63 863 70 1.500000e+00 0.318 slower 0 1.908387e+06 1.908389e+06 2.102
28 regular 9 64 864 71 1.500000e+00 0.233 slower 0 1.908391e+06 1.908394e+06 3.156
28 regular 9 65 865 72 1.500000e+00 0.324 faster 1 1.908396e+06 1.908398e+06 2.020
28 regular 9 66 866 48 1.500000e+00 0.545 slower 1 1.908400e+06 1.908402e+06 2.113
28 regular 9 67 867 49 1.500000e+00 0.228 slower 1 1.908403e+06 1.908405e+06 2.058
28 regular 9 68 868 71 1.500000e+00 0.211 faster 1 1.908406e+06 1.908408e+06 2.029
28 regular 9 69 869 50 1.500000e+00 0.279 slower 1 1.908410e+06 1.908412e+06 2.123
28 regular 9 70 870 70 1.500000e+00 0.142 faster 1 1.908413e+06 1.908415e+06 2.080
28 regular 9 71 871 51 1.500000e+00 0.528 slower 1 1.908416e+06 1.908418e+06 2.187
28 regular 9 72 872 51 1.500000e+00 0.413 faster 0 1.908420e+06 1.908423e+06 2.398
28 regular 9 73 873 70 1.500000e+00 0.517 faster 1 1.908424e+06 1.908426e+06 2.102
28 regular 9 74 874 69 1.500000e+00 0.404 faster 1 1.908427e+06 1.908430e+06 2.497
28 regular 9 75 875 51 1.500000e+00 0.325 slower 1 1.908432e+06 1.908434e+06 1.986
28 regular 9 76 876 52 1.500000e+00 0.346 slower 1 1.908435e+06 1.908437e+06 2.015
28 regular 9 77 877 52 1.500000e+00 0.397 slower 1 1.908439e+06 1.908441e+06 2.275
28 regular 9 78 878 53 1.500000e+00 0.344 slower 1 1.908443e+06 1.908446e+06 2.385
28 regular 9 79 879 67 1.500000e+00 0.138 slower 0 1.908446e+06 1.908449e+06 2.061
28 regular 9 80 880 52 1.500000e+00 0.449 slower 1 1.908450e+06 1.908452e+06 2.094
28 regular 9 81 881 53 1.500000e+00 0.111 slower 1 1.908453e+06 1.908455e+06 2.116
28 regular 9 82 882 67 1.500000e+00 0.288 slower 0 1.908457e+06 1.908459e+06 1.984
28 regular 9 83 883 68 1.500000e+00 0.325 slower 0 1.908460e+06 1.908462e+06 2.067
28 regular 9 84 884 69 1.500000e+00 0.584 slower 0 1.908463e+06 1.908466e+06 2.669
28 regular 9 85 885 50 1.500000e+00 0.354 faster 0 1.908467e+06 1.908469e+06 2.028
28 regular 9 86 886 71 1.500000e+00 0.192 faster 1 1.908470e+06 1.908472e+06 1.966
28 regular 9 87 887 70 1.500000e+00 0.481 faster 1 1.908474e+06 1.908476e+06 2.193
28 regular 9 88 888 70 1.500000e+00 0.425 slower 0 1.908477e+06 1.908480e+06 2.073
28 regular 9 89 889 49 1.500000e+00 0.204 slower 1 1.908481e+06 1.908483e+06 2.049
28 regular 9 90 890 70 1.500000e+00 0.123 slower 0 1.908484e+06 1.908486e+06 1.967
28 regular 9 91 891 49 1.500000e+00 0.218 slower 1 1.908488e+06 1.908490e+06 1.968
28 regular 9 92 892 71 1.500000e+00 0.545 slower 0 1.908492e+06 1.908494e+06 2.014
28 regular 9 93 893 72 1.500000e+00 0.389 faster 1 1.908495e+06 1.908497e+06 2.642
28 regular 9 94 894 49 1.500000e+00 0.312 slower 1 1.908499e+06 1.908501e+06 2.196
28 regular 9 95 895 49 1.500000e+00 0.493 slower 1 1.908503e+06 1.908505e+06 1.949
28 regular 9 96 896 70 1.500000e+00 0.266 slower 0 1.908506e+06 1.908508e+06 2.225
28 regular 9 97 897 71 1.500000e+00 0.136 faster 1 1.908509e+06 1.908511e+06 2.320
28 regular 9 98 898 71 1.500000e+00 0.582 faster 1 1.908513e+06 1.908515e+06 2.164
28 regular 9 99 899 70 1.500000e+00 0.236 slower 0 1.908516e+06 1.908518e+06 2.165
28 regular 9 100 900 71 1.500000e+00 0.364 faster 1 1.908520e+06 1.908522e+06 2.096
28 irregular 10 1 901 71 3 0.142 slower 0 1.908746e+06 1.908751e+06 4.477
28 irregular 10 2 902 72 1 0.288 faster 1 1.908752e+06 1.908754e+06 1.628
28 irregular 10 3 903 71 2 0.239 faster 1 1.908754e+06 1.908757e+06 2.501
28 irregular 10 4 904 49 3 0.244 slower 1 1.908758e+06 1.908762e+06 3.543
28 irregular 10 5 905 50 2.500000e+00 0.251 faster 0 1.908763e+06 1.908767e+06 3.125
28 irregular 10 6 906 49 2 0.105 faster 0 1.908767e+06 1.908770e+06 2.819
28 irregular 10 7 907 72 3 0.396 faster 1 1.908771e+06 1.908775e+06 3.664
28 irregular 10 8 908 48 1.500000e+00 0.486 slower 1 1.908777e+06 1.908779e+06 2.100
28 irregular 10 9 909 49 1 0.290 slower 1 1.908780e+06 1.908782e+06 1.596
28 irregular 10 10 910 49 1.500000e+00 0.201 slower 1 1.908783e+06 1.908785e+06 2.055
28 irregular 10 11 911 70 3 0.327 faster 1 1.908786e+06 1.908790e+06 3.451
28 irregular 10 12 912 50 1.500000e+00 0.314 faster 0 1.908791e+06 1.908793e+06 2.261
28 irregular 10 13 913 71 1 0.367 faster 1 1.908795e+06 1.908796e+06 1.869
28 irregular 10 14 914 50 2 0.314 faster 0 1.908798e+06 1.908801e+06 3.136
28 irregular 10 15 915 49 3 0.113 faster 0 1.908802e+06 1.908806e+06 3.466
28 irregular 10 16 916 72 3 0.155 faster 1 1.908807e+06 1.908810e+06 3.536
28 irregular 10 17 917 72 2.500000e+00 0.226 faster 1 1.908812e+06 1.908815e+06 3.608
28 irregular 10 18 918 49 1 0.113 slower 1 1.908816e+06 1.908818e+06 1.703
28 irregular 10 19 919 71 3 0.150 faster 1 1.908819e+06 1.908822e+06 3.485
28 irregular 10 20 920 50 1 0.257 slower 1 1.908824e+06 1.908825e+06 1.823
28 irregular 10 21 921 70 1 0.580 faster 1 1.908827e+06 1.908828e+06 1.597
28 irregular 10 22 922 69 1.500000e+00 0.368 slower 0 1.908830e+06 1.908832e+06 2.138
28 irregular 10 23 923 70 3 0.401 faster 1 1.908833e+06 1.908837e+06 3.897
28 irregular 10 24 924 70 1.500000e+00 0.425 faster 1 1.908838e+06 1.908840e+06 2.221
28 irregular 10 25 925 51 2.500000e+00 0.340 faster 0 1.908842e+06 1.908845e+06 3.116
28 irregular 10 26 926 50 1.500000e+00 0.532 slower 1 1.908846e+06 1.908848e+06 2.105
28 irregular 10 27 927 50 3 0.420 slower 1 1.908850e+06 1.908853e+06 3.776
28 irregular 10 28 928 51 2.500000e+00 0.599 faster 0 1.908855e+06 1.908858e+06 3.214
28 irregular 10 29 929 70 2.500000e+00 0.499 faster 1 1.908860e+06 1.908863e+06 3.052
28 irregular 10 30 930 50 2 0.595 faster 0 1.908864e+06 1.908867e+06 2.647
28 irregular 10 31 931 49 1.500000e+00 0.234 slower 1 1.908869e+06 1.908872e+06 3.043
28 irregular 10 32 932 50 2.500000e+00 0.166 slower 1 1.908873e+06 1.908876e+06 3.611
28 irregular 10 33 933 70 1 0.460 slower 0 1.908878e+06 1.908879e+06 1.622
28 irregular 10 34 934 71 1 0.253 slower 0 1.908880e+06 1.908882e+06 2.003
28 irregular 10 35 935 72 2 0.387 faster 1 1.908883e+06 1.908886e+06 2.542
28 irregular 10 36 936 71 1.500000e+00 0.182 faster 1 1.908887e+06 1.908889e+06 2.577
28 irregular 10 37 937 71 2.500000e+00 0.226 faster 1 1.908891e+06 1.908894e+06 3.563
28 irregular 10 38 938 70 3 0.266 faster 1 1.908895e+06 1.908899e+06 3.457
28 irregular 10 39 939 70 2 0.338 faster 1 1.908900e+06 1.908902e+06 2.568
28 irregular 10 40 940 69 1 0.430 faster 1 1.908904e+06 1.908905e+06 1.597
28 irregular 10 41 941 51 3 0.308 faster 0 1.908906e+06 1.908910e+06 3.524
28 irregular 10 42 942 50 1 0.271 slower 1 1.908911e+06 1.908913e+06 1.549
28 irregular 10 43 943 51 1 0.226 faster 0 1.908914e+06 1.908916e+06 1.666
28 irregular 10 44 944 50 1.500000e+00 0.102 slower 1 1.908916e+06 1.908919e+06 2.270
28 irregular 10 45 945 50 2.500000e+00 0.275 faster 0 1.908920e+06 1.908923e+06 3.042
28 irregular 10 46 946 71 2.500000e+00 0.389 faster 1 1.908924e+06 1.908927e+06 3.380
28 irregular 10 47 947 50 3 0.434 slower 1 1.908928e+06 1.908932e+06 3.535
28 irregular 10 48 948 50 2 0.588 slower 1 1.908933e+06 1.908936e+06 2.496
28 irregular 10 49 949 51 1 0.265 slower 1 1.908937e+06 1.908938e+06 1.623
28 irregular 10 50 950 69 1 0.571 slower 0 1.908940e+06 1.908942e+06 2.436
28 irregular 10 51 951 50 1.500000e+00 0.141 slower 1 1.908943e+06 1.908946e+06 2.097
28 irregular 10 52 952 69 1.500000e+00 0.396 slower 0 1.908947e+06 1.908949e+06 2.067
28 irregular 10 53 953 50 3 0.214 slower 1 1.908950e+06 1.908953e+06 3.570
28 irregular 10 54 954 50 1 0.585 slower 1 1.908955e+06 1.908957e+06 1.560
28 irregular 10 55 955 69 2 0.396 faster 1 1.908958e+06 1.908960e+06 2.636
28 irregular 10 56 956 69 2.500000e+00 0.358 faster 1 1.908962e+06 1.908965e+06 2.974
28 irregular 10 57 957 52 2 0.591 faster 0 1.908966e+06 1.908969e+06 2.684
28 irregular 10 58 958 51 2.500000e+00 0.248 faster 0 1.908970e+06 1.908973e+06 3.076
28 irregular 10 59 959 50 2.500000e+00 0.216 slower 1 1.908974e+06 1.908977e+06 3.083
28 irregular 10 60 960 70 3 0.247 faster 1 1.908978e+06 1.908982e+06 3.772
28 irregular 10 61 961 69 1.500000e+00 0.156 slower 0 1.908983e+06 1.908985e+06 2.056
28 irregular 10 62 962 70 2 0.366 faster 1 1.908986e+06 1.908989e+06 2.555
28 irregular 10 63 963 70 2.500000e+00 0.165 faster 1 1.908990e+06 1.908993e+06 3.032
28 irregular 10 64 964 51 2 0.596 slower 1 1.908995e+06 1.908997e+06 2.574
28 irregular 10 65 965 69 1.500000e+00 0.428 faster 1 1.908998e+06 1.909001e+06 2.139
28 irregular 10 66 966 52 2 0.538 slower 1 1.909002e+06 1.909005e+06 2.915
28 irregular 10 67 967 68 1 0.195 faster 1 1.909006e+06 1.909008e+06 1.766
28 irregular 10 68 968 67 1.500000e+00 0.401 slower 0 1.909009e+06 1.909012e+06 2.597
28 irregular 10 69 969 68 2.500000e+00 0.106 slower 0 1.909012e+06 1.909016e+06 3.208
28 irregular 10 70 970 51 1.500000e+00 0.518 slower 1 1.909017e+06 1.909019e+06 2.133
28 irregular 10 71 971 69 1.500000e+00 0.498 slower 0 1.909021e+06 1.909023e+06 2.377
28 irregular 10 72 972 50 2.500000e+00 0.123 faster 0 1.909024e+06 1.909027e+06 3.155
28 irregular 10 73 973 49 2.500000e+00 0.414 slower 1 1.909029e+06 1.909032e+06 3.034
28 irregular 10 74 974 70 1 0.400 slower 0 1.909033e+06 1.909035e+06 2.671
28 irregular 10 75 975 49 3 0.402 slower 1 1.909037e+06 1.909040e+06 3.637
28 irregular 10 76 976 71 2.500000e+00 0.257 faster 1 1.909042e+06 1.909045e+06 3.252
28 irregular 10 77 977 70 1 0.133 slower 0 1.909046e+06 1.909047e+06 1.585
28 irregular 10 78 978 71 2 0.586 slower 0 1.909049e+06 1.909051e+06 2.719
28 irregular 10 79 979 48 2 0.279 slower 1 1.909052e+06 1.909055e+06 2.754
28 irregular 10 80 980 48 2 0.504 slower 1 1.909056e+06 1.909059e+06 2.517
28 irregular 10 81 981 71 1.500000e+00 0.568 slower 0 1.909060e+06 1.909063e+06 2.172
28 irregular 10 82 982 48 1 0.284 faster 0 1.909064e+06 1.909065e+06 1.525
28 irregular 10 83 983 47 2.500000e+00 0.208 slower 1 1.909067e+06 1.909070e+06 3.102
28 irregular 10 84 984 47 1.500000e+00 0.488 slower 1 1.909071e+06 1.909073e+06 2.065
28 irregular 10 85 985 72 2 0.260 faster 1 1.909074e+06 1.909076e+06 2.586
28 irregular 10 86 986 48 1 0.598 faster 0 1.909078e+06 1.909080e+06 1.873
28 irregular 10 87 987 47 3 0.448 slower 1 1.909081e+06 1.909085e+06 3.488
28 irregular 10 88 988 48 1.500000e+00 0.267 slower 1 1.909086e+06 1.909088e+06 2.336
28 irregular 10 89 989 72 2 0.536 faster 1 1.909089e+06 1.909092e+06 2.514
28 irregular 10 90 990 71 1.500000e+00 0.308 faster 1 1.909093e+06 1.909095e+06 2.447
28 irregular 10 91 991 71 3 0.489 faster 1 1.909097e+06 1.909100e+06 3.532
28 irregular 10 92 992 50 2 0.462 slower 1 1.909101e+06 1.909105e+06 3.179
28 irregular 10 93 993 50 1 0.365 slower 1 1.909106e+06 1.909107e+06 1.700
28 irregular 10 94 994 51 3 0.242 slower 1 1.909109e+06 1.909112e+06 3.625
28 irregular 10 95 995 69 2 0.164 slower 0 1.909113e+06 1.909116e+06 2.715
28 irregular 10 96 996 70 3 0.560 faster 1 1.909117e+06 1.909121e+06 3.670
28 irregular 10 97 997 69 2.500000e+00 0.309 slower 0 1.909122e+06 1.909125e+06 3.064
28 irregular 10 98 998 70 2 0.505 faster 1 1.909126e+06 1.909129e+06 2.726
28 irregular 10 99 999 70 2.500000e+00 0.558 faster 1 1.909130e+06 1.909133e+06 3.050
28 irregular 10 100 1000 51 3 0.263 slower 1 1.909135e+06 1.909139e+06 3.618
