subNo condition blockNo trialNo trialID currentFrequency cueTargetInterval randomPreCueInterval response responseAccuracy startTime responseTime RT
3 irregular 1 1 1 30 1.500000e+00 0.352 faster 0 1.118849e+06 1.118851e+06 2.193
3 irregular 1 2 2 30 3 0.469 faster 0 1.118852e+06 1.118856e+06 3.680
3 irregular 1 3 3 90 1.500000e+00 0.329 slower 0 1.118858e+06 1.118860e+06 2.889
3 irregular 1 4 4 90 3 0.400 slower 0 1.118862e+06 1.118865e+06 3.931
3 irregular 1 5 5 30 3 0.458 faster 0 1.118867e+06 1.118871e+06 3.956
3 irregular 1 6 6 30 3 0.250 faster 0 1.118873e+06 1.118877e+06 4.107
3 irregular 1 7 7 30 1 0.353 faster 0 1.118879e+06 1.118882e+06 2.613
3 irregular 1 8 8 30 2.500000e+00 0.254 faster 0 1.118882e+06 1.118886e+06 3.583
3 irregular 1 9 9 90 1 0.158 slower 0 1.118887e+06 1.118890e+06 2.735
3 irregular 1 10 10 30 2.500000e+00 0.459 faster 0 1.118891e+06 1.118895e+06 3.671
3 irregular 1 11 11 90 1 0.276 slower 0 1.118896e+06 1.118898e+06 2.568
3 irregular 1 12 12 30 2.500000e+00 0.407 faster 0 1.118899e+06 1.118903e+06 3.675
3 irregular 1 13 13 90 2.500000e+00 0.562 faster 1 1.118906e+06 1.118910e+06 3.955
3 irregular 1 14 14 30 1 0.388 faster 0 1.118912e+06 1.118914e+06 2.206
3 irregular 1 15 15 30 1 0.589 faster 0 1.118916e+06 1.118918e+06 1.926
3 irregular 1 16 16 90 1.500000e+00 0.167 faster 1 1.118920e+06 1.118923e+06 2.937
3 irregular 1 17 17 32 2 0.576 faster 0 1.118924e+06 1.118927e+06 3.100
3 irregular 1 18 18 90 3 0.557 slower 0 1.118928e+06 1.118932e+06 3.915
3 irregular 1 19 19 90 2.500000e+00 0.567 slower 0 1.118935e+06 1.118939e+06 3.419
3 irregular 1 20 20 90 2.500000e+00 0.114 slower 0 1.118940e+06 1.118943e+06 3.305
3 irregular 1 21 21 30 2 0.564 faster 0 1.118946e+06 1.118949e+06 3.378
3 irregular 1 22 22 30 1 0.508 faster 0 1.118951e+06 1.118953e+06 2.153
3 irregular 1 23 23 30 1 0.295 slower 1 1.118955e+06 1.118959e+06 3.355
3 irregular 1 24 24 90 2.500000e+00 0.177 slower 0 1.118961e+06 1.118964e+06 3.515
3 irregular 1 25 25 30 1.500000e+00 0.357 faster 0 1.118966e+06 1.118969e+06 2.640
3 irregular 1 26 26 90 2 0.358 slower 0 1.118971e+06 1.118974e+06 2.956
3 irregular 1 27 27 30 1 0.439 slower 1 1.118976e+06 1.118977e+06 1.828
3 irregular 1 28 28 88 3 0.199 slower 0 1.118979e+06 1.118983e+06 3.883
3 irregular 1 29 29 90 2 0.146 slower 0 1.118985e+06 1.118988e+06 3.138
3 irregular 1 30 30 90 3 0.365 none 2 1.118992e+06 1.118998e+06 5.999
3 irregular 1 31 31 30 3 0.335 faster 0 1.118999e+06 1.119003e+06 4.097
3 irregular 1 32 32 90 1 0.100 slower 0 1.119005e+06 1.119008e+06 2.362
3 irregular 1 33 33 30 2.500000e+00 0.595 faster 0 1.119010e+06 1.119014e+06 3.862
3 irregular 1 34 34 30 3 0.137 slower 1 1.119015e+06 1.119019e+06 4.273
3 irregular 1 35 35 30 3 0.590 faster 0 1.119020e+06 1.119025e+06 4.129
3 irregular 1 36 36 90 2 0.249 slower 0 1.119027e+06 1.119031e+06 3.762
3 irregular 1 37 37 30 2.500000e+00 0.109 slower 1 1.119032e+06 1.119035e+06 3.740
3 irregular 1 38 38 89 3 0.307 faster 1 1.119037e+06 1.119041e+06 4.476
3 irregular 1 39 39 31 2.500000e+00 0.243 slower 1 1.119042e+06 1.119046e+06 3.647
3 irregular 1 40 40 32 1.500000e+00 0.253 faster 0 1.119048e+06 1.119050e+06 2.573
3 irregular 1 41 41 89 3 0.416 slower 0 1.119052e+06 1.119056e+06 3.905
3 irregular 1 42 42 30 1.500000e+00 0.522 faster 0 1.119058e+06 1.119061e+06 3.197
3 irregular 1 43 43 90 1.500000e+00 0.174 slower 0 1.119063e+06 1.119065e+06 2.359
3 irregular 1 44 44 30 3 0.556 faster 0 1.119068e+06 1.119072e+06 3.962
3 irregular 1 45 45 30 1.500000e+00 0.204 faster 0 1.119074e+06 1.119077e+06 2.745
3 irregular 1 46 46 30 2.500000e+00 0.158 faster 0 1.119078e+06 1.119081e+06 3.342
3 irregular 1 47 47 90 1 0.539 faster 1 1.119084e+06 1.119086e+06 2.110
3 irregular 1 48 48 30 2 0.526 faster 0 1.119088e+06 1.119091e+06 3.612
3 irregular 1 49 49 30 1.500000e+00 0.236 slower 1 1.119093e+06 1.119096e+06 2.502
3 irregular 1 50 50 31 1.500000e+00 0.529 faster 0 1.119098e+06 1.119100e+06 2.780
3 irregular 1 51 51 90 3 0.140 faster 1 1.119103e+06 1.119107e+06 3.978
3 irregular 1 52 52 30 2 0.188 slower 1 1.119108e+06 1.119112e+06 3.699
3 irregular 1 53 53 89 2 0.304 slower 0 1.119114e+06 1.119117e+06 3.030
3 irregular 1 54 54 30 1.500000e+00 0.599 slower 1 1.119119e+06 1.119122e+06 2.693
3 irregular 1 55 55 30 1 0.242 slower 1 1.119124e+06 1.119126e+06 1.934
3 irregular 1 56 56 31 2 0.440 faster 0 1.119127e+06 1.119131e+06 3.126
3 irregular 1 57 57 90 2.500000e+00 0.473 faster 1 1.119133e+06 1.119137e+06 3.848
3 irregular 1 58 58 30 2 0.519 faster 0 1.119139e+06 1.119142e+06 3.016
3 irregular 1 59 59 90 1.500000e+00 0.227 faster 1 1.119144e+06 1.119146e+06 2.548
3 irregular 1 60 60 31 2 0.226 slower 1 1.119147e+06 1.119151e+06 3.650
3 irregular 1 61 61 89 2.500000e+00 0.177 faster 1 1.119153e+06 1.119156e+06 3.628
3 irregular 1 62 62 32 2 0.140 faster 0 1.119158e+06 1.119161e+06 3.142
3 irregular 1 63 63 89 3 0.277 faster 1 1.119164e+06 1.119168e+06 4.343
3 irregular 1 64 64 89 1.500000e+00 0.209 faster 1 1.119170e+06 1.119174e+06 3.752
3 irregular 1 65 65 88 1 0.182 slower 0 1.119178e+06 1.119181e+06 2.562
3 irregular 1 66 66 89 1 0.523 faster 1 1.119184e+06 1.119186e+06 1.988
3 irregular 1 67 67 89 2 0.337 faster 1 1.119187e+06 1.119190e+06 2.923
3 irregular 1 68 68 88 1.500000e+00 0.290 slower 0 1.119193e+06 1.119196e+06 3.039
3 irregular 1 69 69 89 1.500000e+00 0.562 faster 1 1.119198e+06 1.119201e+06 2.531
3 irregular 1 70 70 31 2.500000e+00 0.150 faster 0 1.119203e+06 1.119206e+06 3.533
3 irregular 1 71 71 90 2.500000e+00 0.582 slower 0 1.119209e+06 1.119213e+06 4.100
3 irregular 1 72 72 90 1.500000e+00 0.587 slower 0 1.119215e+06 1.119218e+06 2.775
3 irregular 1 73 73 30 3 0.273 faster 0 1.119220e+06 1.119224e+06 3.797
3 irregular 1 74 74 30 1 0.121 faster 0 1.119226e+06 1.119228e+06 2.072
3 irregular 1 75 75 90 3 0.210 slower 0 1.119230e+06 1.119234e+06 4.273
3 irregular 1 76 76 90 2.500000e+00 0.529 none 2 1.119236e+06 1.119241e+06 5.500
3 irregular 1 77 77 30 2 0.530 slower 1 1.119242e+06 1.119246e+06 3.905
3 irregular 1 78 78 31 1 0.507 faster 0 1.119248e+06 1.119250e+06 2.146
3 irregular 1 79 79 30 1.500000e+00 0.260 faster 0 1.119251e+06 1.119254e+06 2.351
3 irregular 1 80 80 90 1.500000e+00 0.523 faster 1 1.119256e+06 1.119258e+06 2.458
3 irregular 1 81 81 30 2.500000e+00 0.394 faster 0 1.119261e+06 1.119264e+06 3.319
3 irregular 1 82 82 90 3 0.249 slower 0 1.119268e+06 1.119272e+06 3.916
3 irregular 1 83 83 90 2 0.454 slower 0 1.119274e+06 1.119276e+06 2.599
3 irregular 1 84 84 90 2.500000e+00 0.500 slower 0 1.119279e+06 1.119283e+06 3.431
3 irregular 1 85 85 30 1 0.224 faster 0 1.119285e+06 1.119287e+06 2.047
3 irregular 1 86 86 30 3 0.131 faster 0 1.119289e+06 1.119292e+06 3.856
3 irregular 1 87 87 90 1 0.310 slower 0 1.119294e+06 1.119296e+06 1.952
3 irregular 1 88 88 90 2 0.171 slower 0 1.119298e+06 1.119301e+06 2.988
3 irregular 1 89 89 90 1 0.515 slower 0 1.119304e+06 1.119306e+06 2.026
3 irregular 1 90 90 90 2 0.367 faster 1 1.119307e+06 1.119310e+06 2.885
3 irregular 1 91 91 89 2 0.517 faster 1 1.119312e+06 1.119315e+06 3.267
3 irregular 1 92 92 31 1.500000e+00 0.403 faster 0 1.119317e+06 1.119319e+06 2.483
3 irregular 1 93 93 90 1 0.202 slower 0 1.119322e+06 1.119324e+06 2.122
3 irregular 1 94 94 90 1.500000e+00 0.509 slower 0 1.119327e+06 1.119329e+06 2.312
3 irregular 1 95 95 30 3 0.329 faster 0 1.119332e+06 1.119335e+06 3.717
3 irregular 1 96 96 30 2 0.390 faster 0 1.119337e+06 1.119340e+06 2.980
3 irregular 1 97 97 90 2.500000e+00 0.578 slower 0 1.119344e+06 1.119347e+06 3.266
3 irregular 1 98 98 30 2.500000e+00 0.465 slower 1 1.119350e+06 1.119354e+06 3.826
3 irregular 1 99 99 89 2 0.509 faster 1 1.119356e+06 1.119360e+06 3.319
3 irregular 1 100 100 89 1 0.329 slower 0 1.119361e+06 1.119364e+06 2.609
3 regular 2 1 101 30 1 0.194 faster 0 1.119387e+06 1.119390e+06 2.945
3 regular 2 2 102 30 1 0.331 faster 0 1.119391e+06 1.119393e+06 2.240
3 regular 2 3 103 90 1 0.121 slower 0 1.119395e+06 1.119398e+06 2.512
3 regular 2 4 104 30 1 0.587 faster 0 1.119399e+06 1.119401e+06 1.875
3 regular 2 5 105 90 1 0.360 slower 0 1.119402e+06 1.119404e+06 1.919
3 regular 2 6 106 30 1 0.554 faster 0 1.119406e+06 1.119408e+06 1.929
3 regular 2 7 107 30 1 0.481 faster 0 1.119410e+06 1.119412e+06 1.971
3 regular 2 8 108 90 1 0.175 faster 1 1.119414e+06 1.119416e+06 2.311
3 regular 2 9 109 31 1 0.228 faster 0 1.119418e+06 1.119420e+06 2.023
3 regular 2 10 110 30 1 0.300 faster 0 1.119422e+06 1.119425e+06 2.512
3 regular 2 11 111 30 1 0.268 faster 0 1.119426e+06 1.119428e+06 1.783
3 regular 2 12 112 30 1 0.137 faster 0 1.119430e+06 1.119432e+06 2.202
3 regular 2 13 113 30 1 0.487 faster 0 1.119434e+06 1.119436e+06 1.881
3 regular 2 14 114 90 1 0.145 slower 0 1.119437e+06 1.119439e+06 1.884
3 regular 2 15 115 90 1 0.595 slower 0 1.119441e+06 1.119442e+06 1.870
3 regular 2 16 116 30 1 0.130 faster 0 1.119444e+06 1.119446e+06 2.429
3 regular 2 17 117 30 1 0.358 faster 0 1.119448e+06 1.119450e+06 1.969
3 regular 2 18 118 90 1 0.191 faster 1 1.119451e+06 1.119453e+06 2.066
3 regular 2 19 119 90 1 0.539 slower 0 1.119455e+06 1.119457e+06 2.283
3 regular 2 20 120 90 1 0.197 slower 0 1.119459e+06 1.119461e+06 1.923
3 regular 2 21 121 30 1 0.147 faster 0 1.119462e+06 1.119464e+06 1.767
3 regular 2 22 122 90 1 0.510 slower 0 1.119466e+06 1.119468e+06 1.848
3 regular 2 23 123 30 1 0.230 faster 0 1.119469e+06 1.119471e+06 2.018
3 regular 2 24 124 30 1 0.370 faster 0 1.119473e+06 1.119475e+06 2.133
3 regular 2 25 125 90 1 0.345 slower 0 1.119476e+06 1.119478e+06 1.879
3 regular 2 26 126 30 1 0.102 faster 0 1.119480e+06 1.119482e+06 2.501
3 regular 2 27 127 90 1 0.535 slower 0 1.119484e+06 1.119486e+06 1.862
3 regular 2 28 128 90 1 0.111 slower 0 1.119488e+06 1.119490e+06 1.756
3 regular 2 29 129 90 1 0.277 slower 0 1.119491e+06 1.119493e+06 1.557
3 regular 2 30 130 90 1 0.200 slower 0 1.119495e+06 1.119496e+06 1.595
3 regular 2 31 131 90 1 0.192 slower 0 1.119498e+06 1.119499e+06 1.552
3 regular 2 32 132 30 1 0.551 faster 0 1.119501e+06 1.119503e+06 2.123
3 regular 2 33 133 30 1 0.433 faster 0 1.119505e+06 1.119507e+06 1.910
3 regular 2 34 134 90 1 0.189 slower 0 1.119508e+06 1.119511e+06 2.476
3 regular 2 35 135 90 1 0.227 slower 0 1.119512e+06 1.119514e+06 1.758
3 regular 2 36 136 30 1 0.141 faster 0 1.119515e+06 1.119518e+06 2.197
3 regular 2 37 137 30 1 0.194 faster 0 1.119519e+06 1.119522e+06 2.500
3 regular 2 38 138 30 1 0.434 faster 0 1.119524e+06 1.119525e+06 1.864
3 regular 2 39 139 90 1 0.365 slower 0 1.119528e+06 1.119529e+06 1.788
3 regular 2 40 140 30 1 0.255 faster 0 1.119531e+06 1.119533e+06 2.223
3 regular 2 41 141 30 1 0.129 faster 0 1.119535e+06 1.119537e+06 2.033
3 regular 2 42 142 90 1 0.557 slower 0 1.119538e+06 1.119540e+06 1.799
3 regular 2 43 143 90 1 0.422 slower 0 1.119542e+06 1.119543e+06 1.722
3 regular 2 44 144 90 1 0.322 slower 0 1.119545e+06 1.119547e+06 1.762
3 regular 2 45 145 90 1 0.234 slower 0 1.119549e+06 1.119551e+06 1.882
3 regular 2 46 146 30 1 0.175 faster 0 1.119552e+06 1.119554e+06 2.108
3 regular 2 47 147 90 1 0.433 slower 0 1.119556e+06 1.119557e+06 1.802
3 regular 2 48 148 30 1 0.588 faster 0 1.119559e+06 1.119561e+06 1.923
3 regular 2 49 149 30 1 0.533 faster 0 1.119563e+06 1.119565e+06 2.060
3 regular 2 50 150 90 1 0.155 slower 0 1.119567e+06 1.119569e+06 2.026
3 regular 2 51 151 90 1 0.481 faster 1 1.119570e+06 1.119573e+06 2.364
3 regular 2 52 152 89 1 0.445 faster 1 1.119575e+06 1.119577e+06 2.195
3 regular 2 53 153 31 1 0.465 faster 0 1.119579e+06 1.119581e+06 1.944
3 regular 2 54 154 30 1 0.422 faster 0 1.119583e+06 1.119585e+06 2.139
3 regular 2 55 155 90 1 0.412 faster 1 1.119587e+06 1.119589e+06 2.026
3 regular 2 56 156 31 1 0.541 faster 0 1.119591e+06 1.119593e+06 1.881
3 regular 2 57 157 90 1 0.496 faster 1 1.119595e+06 1.119597e+06 1.977
3 regular 2 58 158 30 1 0.520 faster 0 1.119598e+06 1.119600e+06 1.930
3 regular 2 59 159 90 1 0.447 faster 1 1.119602e+06 1.119605e+06 2.660
3 regular 2 60 160 31 1 0.228 faster 0 1.119609e+06 1.119612e+06 2.441
3 regular 2 61 161 30 1 0.333 slower 1 1.119613e+06 1.119615e+06 2.123
3 regular 2 62 162 90 1 0.426 slower 0 1.119616e+06 1.119618e+06 1.831
3 regular 2 63 163 90 1 0.496 slower 0 1.119620e+06 1.119623e+06 2.761
3 regular 2 64 164 90 1 0.178 slower 0 1.119624e+06 1.119627e+06 2.966
3 regular 2 65 165 30 1 0.450 faster 0 1.119630e+06 1.119632e+06 1.956
3 regular 2 66 166 90 1 0.250 faster 1 1.119638e+06 1.119641e+06 2.222
3 regular 2 67 167 89 1 0.573 faster 1 1.119643e+06 1.119646e+06 2.574
3 regular 2 68 168 89 1 0.402 faster 1 1.119647e+06 1.119649e+06 2.093
3 regular 2 69 169 32 1 0.442 slower 1 1.119651e+06 1.119654e+06 2.925
3 regular 2 70 170 32 1 0.548 slower 1 1.119655e+06 1.119658e+06 2.839
3 regular 2 71 171 33 1 0.498 slower 1 1.119660e+06 1.119662e+06 2.504
3 regular 2 72 172 33 1 0.445 slower 1 1.119665e+06 1.119667e+06 1.912
3 regular 2 73 173 86 1 0.373 slower 0 1.119669e+06 1.119670e+06 1.888
3 regular 2 74 174 33 1 0.130 slower 1 1.119672e+06 1.119673e+06 1.823
3 regular 2 75 175 87 1 0.396 slower 0 1.119675e+06 1.119677e+06 2.088
3 regular 2 76 176 88 1 0.552 slower 0 1.119679e+06 1.119680e+06 1.715
3 regular 2 77 177 89 1 0.413 faster 1 1.119682e+06 1.119684e+06 2.266
3 regular 2 78 178 88 1 0.131 faster 1 1.119686e+06 1.119689e+06 2.730
3 regular 2 79 179 88 1 0.514 slower 0 1.119691e+06 1.119693e+06 1.831
3 regular 2 80 180 31 1 0.544 faster 0 1.119696e+06 1.119698e+06 2.479
3 regular 2 81 181 90 1 0.282 slower 0 1.119700e+06 1.119702e+06 2.119
3 regular 2 82 182 30 1 0.337 slower 1 1.119706e+06 1.119708e+06 2.025
3 regular 2 83 183 31 1 0.452 slower 1 1.119709e+06 1.119711e+06 1.600
3 regular 2 84 184 89 1 0.284 faster 1 1.119713e+06 1.119715e+06 2.662
3 regular 2 85 185 88 1 0.120 faster 1 1.119717e+06 1.119719e+06 2.244
3 regular 2 86 186 32 1 0.410 faster 0 1.119721e+06 1.119723e+06 1.855
3 regular 2 87 187 31 1 0.319 slower 1 1.119725e+06 1.119727e+06 1.925
3 regular 2 88 188 32 1 0.173 slower 1 1.119728e+06 1.119730e+06 1.794
3 regular 2 89 189 32 1 0.265 slower 1 1.119732e+06 1.119733e+06 1.761
3 regular 2 90 190 33 1 0.116 slower 1 1.119737e+06 1.119739e+06 1.789
3 regular 2 91 191 33 1 0.520 slower 1 1.119743e+06 1.119745e+06 2.348
3 regular 2 92 192 34 1 0.536 slower 1 1.119747e+06 1.119749e+06 2.103
3 regular 2 93 193 34 1 0.325 slower 1 1.119751e+06 1.119753e+06 2.281
3 regular 2 94 194 35 1 0.326 slower 1 1.119755e+06 1.119757e+06 1.940
3 regular 2 95 195 85 1 0.299 slower 0 1.119759e+06 1.119761e+06 2.071
3 regular 2 96 196 86 1 0.501 faster 1 1.119763e+06 1.119765e+06 2.234
3 regular 2 97 197 85 1 0.457 faster 1 1.119767e+06 1.119769e+06 2.304
3 regular 2 98 198 85 1 0.105 faster 1 1.119771e+06 1.119773e+06 2.493
3 regular 2 99 199 84 1 0.149 faster 1 1.119774e+06 1.119777e+06 2.598
3 regular 2 100 200 84 1 0.503 slower 0 1.119779e+06 1.119782e+06 2.568
3 irregular 3 1 201 85 1.500000e+00 0.530 faster 1 1.120470e+06 1.120473e+06 2.791
3 irregular 3 2 202 84 2 0.505 faster 1 1.120475e+06 1.120478e+06 3.588
3 irregular 3 3 203 36 2.500000e+00 0.402 faster 0 1.120480e+06 1.120483e+06 3.357
3 irregular 3 4 204 35 2 0.578 slower 1 1.120485e+06 1.120488e+06 3.019
3 irregular 3 5 205 84 2 0.164 slower 0 1.120490e+06 1.120492e+06 2.922
3 irregular 3 6 206 85 2.500000e+00 0.378 faster 1 1.120494e+06 1.120498e+06 3.478
3 irregular 3 7 207 35 3 0.528 slower 1 1.120500e+06 1.120503e+06 3.715
3 irregular 3 8 208 36 2.500000e+00 0.312 faster 0 1.120505e+06 1.120508e+06 3.386
3 irregular 3 9 209 85 2 0.598 faster 1 1.120511e+06 1.120514e+06 3.117
3 irregular 3 10 210 85 2.500000e+00 0.132 slower 0 1.120517e+06 1.120520e+06 3.380
3 irregular 3 11 211 34 2.500000e+00 0.555 faster 0 1.120522e+06 1.120525e+06 3.325
3 irregular 3 12 212 87 2 0.475 faster 1 1.120527e+06 1.120530e+06 2.991
3 irregular 3 13 213 34 2.500000e+00 0.578 faster 0 1.120533e+06 1.120536e+06 3.304
3 irregular 3 14 214 33 3 0.127 faster 0 1.120538e+06 1.120542e+06 3.959
3 irregular 3 15 215 88 1.500000e+00 0.242 faster 1 1.120544e+06 1.120546e+06 2.554
3 irregular 3 16 216 32 1 0.488 faster 0 1.120548e+06 1.120550e+06 1.981
3 irregular 3 17 217 89 2.500000e+00 0.290 faster 1 1.120552e+06 1.120555e+06 3.451
3 irregular 3 18 218 32 1 0.426 faster 0 1.120557e+06 1.120559e+06 1.799
3 irregular 3 19 219 89 2 0.304 faster 1 1.120561e+06 1.120564e+06 2.692
3 irregular 3 20 220 89 3 0.247 slower 0 1.120566e+06 1.120571e+06 4.668
3 irregular 3 21 221 30 2.500000e+00 0.349 faster 0 1.120573e+06 1.120576e+06 3.310
3 irregular 3 22 222 90 1.500000e+00 0.463 slower 0 1.120579e+06 1.120582e+06 2.972
3 irregular 3 23 223 90 3 0.390 slower 0 1.120584e+06 1.120588e+06 3.991
3 irregular 3 24 224 90 2.500000e+00 0.483 slower 0 1.120590e+06 1.120593e+06 3.458
3 irregular 3 25 225 30 1.500000e+00 0.550 faster 0 1.120595e+06 1.120597e+06 2.465
3 irregular 3 26 226 90 2 0.190 slower 0 1.120599e+06 1.120602e+06 2.802
3 irregular 3 27 227 30 1 0.319 faster 0 1.120604e+06 1.120606e+06 2.096
3 irregular 3 28 228 90 1 0.576 slower 0 1.120609e+06 1.120611e+06 2.408
3 irregular 3 29 229 30 1 0.301 slower 1 1.120613e+06 1.120615e+06 2.769
3 irregular 3 30 230 89 1.500000e+00 0.403 faster 1 1.120617e+06 1.120620e+06 2.697
3 irregular 3 31 231 31 1 0.162 faster 0 1.120622e+06 1.120624e+06 2.661
3 irregular 3 32 232 90 2.500000e+00 0.576 faster 1 1.120626e+06 1.120630e+06 3.480
3 irregular 3 33 233 31 2 0.470 faster 0 1.120632e+06 1.120635e+06 2.814
3 irregular 3 34 234 30 2 0.128 slower 1 1.120637e+06 1.120640e+06 2.859
3 irregular 3 35 235 30 2.500000e+00 0.494 faster 0 1.120642e+06 1.120646e+06 3.999
3 irregular 3 36 236 30 3 0.390 slower 1 1.120648e+06 1.120653e+06 4.906
3 irregular 3 37 237 89 1 0.219 faster 1 1.120655e+06 1.120657e+06 2.376
3 irregular 3 38 238 31 2.500000e+00 0.441 faster 0 1.120659e+06 1.120664e+06 4.293
3 irregular 3 39 239 30 1.500000e+00 0.574 faster 0 1.120666e+06 1.120669e+06 2.524
3 irregular 3 40 240 30 2 0.112 faster 0 1.120671e+06 1.120674e+06 3.046
3 irregular 3 41 241 30 1.500000e+00 0.134 slower 1 1.120676e+06 1.120678e+06 2.652
3 irregular 3 42 242 31 2 0.283 slower 1 1.120681e+06 1.120683e+06 2.669
3 irregular 3 43 243 31 3 0.412 slower 1 1.120686e+06 1.120691e+06 4.843
3 irregular 3 44 244 88 1.500000e+00 0.545 slower 0 1.120695e+06 1.120697e+06 2.503
3 irregular 3 45 245 31 2 0.502 slower 1 1.120700e+06 1.120703e+06 3.176
3 irregular 3 46 246 89 2 0.248 faster 1 1.120705e+06 1.120708e+06 3.095
3 irregular 3 47 247 88 1 0.267 faster 1 1.120709e+06 1.120711e+06 1.819
3 irregular 3 48 248 32 2 0.565 faster 0 1.120713e+06 1.120716e+06 3.299
3 irregular 3 49 249 89 3 0.294 faster 1 1.120718e+06 1.120722e+06 3.813
3 irregular 3 50 250 32 2 0.512 faster 0 1.120724e+06 1.120726e+06 2.824
3 irregular 3 51 251 89 1 0.202 none 2 1.120728e+06 1.120732e+06 3.999
3 irregular 3 52 252 89 1.500000e+00 0.570 slower 0 1.120733e+06 1.120736e+06 2.999
3 irregular 3 53 253 90 3 0.276 faster 1 1.120738e+06 1.120742e+06 3.825
3 irregular 3 54 254 90 3 0.185 faster 1 1.120744e+06 1.120747e+06 3.702
3 irregular 3 55 255 31 1 0.189 slower 1 1.120749e+06 1.120751e+06 1.995
3 irregular 3 56 256 31 2.500000e+00 0.578 faster 0 1.120753e+06 1.120757e+06 3.453
3 irregular 3 57 257 30 3 0.332 faster 0 1.120759e+06 1.120763e+06 4.045
3 irregular 3 58 258 90 1 0.178 faster 1 1.120764e+06 1.120767e+06 2.586
3 irregular 3 59 259 89 2.500000e+00 0.362 faster 1 1.120769e+06 1.120772e+06 3.303
3 irregular 3 60 260 31 1 0.408 slower 1 1.120775e+06 1.120777e+06 1.986
3 irregular 3 61 261 88 2 0.300 slower 0 1.120778e+06 1.120782e+06 3.259
3 irregular 3 62 262 89 1 0.187 slower 0 1.120784e+06 1.120786e+06 2.059
3 irregular 3 63 263 90 1.500000e+00 0.297 faster 1 1.120787e+06 1.120790e+06 2.451
3 irregular 3 64 264 30 1.500000e+00 0.407 faster 0 1.120791e+06 1.120793e+06 2.295
3 irregular 3 65 265 90 1 0.533 faster 1 1.120795e+06 1.120797e+06 1.995
3 irregular 3 66 266 31 1.500000e+00 0.238 faster 0 1.120799e+06 1.120801e+06 2.435
3 irregular 3 67 267 90 1.500000e+00 0.369 faster 1 1.120802e+06 1.120805e+06 2.369
3 irregular 3 68 268 30 3 0.486 faster 0 1.120807e+06 1.120811e+06 3.773
3 irregular 3 69 269 90 1 0.280 faster 1 1.120813e+06 1.120816e+06 2.506
3 irregular 3 70 270 31 3 0.239 slower 1 1.120817e+06 1.120821e+06 4.128
3 irregular 3 71 271 89 3 0.197 slower 0 1.120822e+06 1.120827e+06 4.575
3 irregular 3 72 272 90 3 0.486 faster 1 1.120829e+06 1.120833e+06 4.045
3 irregular 3 73 273 89 2.500000e+00 0.421 faster 1 1.120835e+06 1.120839e+06 3.857
3 irregular 3 74 274 31 1.500000e+00 0.568 faster 0 1.120841e+06 1.120844e+06 2.480
3 irregular 3 75 275 30 1 0.498 faster 0 1.120845e+06 1.120847e+06 1.788
3 irregular 3 76 276 90 2 0.148 slower 0 1.120848e+06 1.120851e+06 3.052
3 irregular 3 77 277 30 1.500000e+00 0.464 slower 1 1.120854e+06 1.120856e+06 2.551
3 irregular 3 78 278 31 3 0.584 slower 1 1.120858e+06 1.120863e+06 4.380
3 irregular 3 79 279 89 1 0.238 faster 1 1.120865e+06 1.120867e+06 1.904
3 irregular 3 80 280 32 2 0.330 faster 0 1.120868e+06 1.120871e+06 2.970
3 irregular 3 81 281 89 3 0.373 faster 1 1.120873e+06 1.120877e+06 4.072
3 irregular 3 82 282 89 2.500000e+00 0.344 slower 0 1.120880e+06 1.120883e+06 3.591
3 irregular 3 83 283 30 3 0.102 faster 0 1.120885e+06 1.120889e+06 4.077
3 irregular 3 84 284 90 1.500000e+00 0.315 slower 0 1.120891e+06 1.120894e+06 2.653
3 irregular 3 85 285 90 1 0.186 faster 1 1.120895e+06 1.120897e+06 2.214
3 irregular 3 86 286 89 2.500000e+00 0.543 faster 1 1.120899e+06 1.120902e+06 3.689
3 irregular 3 87 287 89 2.500000e+00 0.256 slower 0 1.120904e+06 1.120907e+06 3.534
3 irregular 3 88 288 90 2 0.353 faster 1 1.120908e+06 1.120911e+06 2.915
3 irregular 3 89 289 89 3 0.153 faster 1 1.120913e+06 1.120917e+06 3.931
3 irregular 3 90 290 89 1.500000e+00 0.382 faster 1 1.120919e+06 1.120923e+06 3.447
3 irregular 3 91 291 32 1.500000e+00 0.146 slower 1 1.120924e+06 1.120926e+06 2.383
3 irregular 3 92 292 88 3 0.528 faster 1 1.120928e+06 1.120931e+06 3.696
3 irregular 3 93 293 33 3 0.212 faster 0 1.120934e+06 1.120938e+06 3.687
3 irregular 3 94 294 32 1.500000e+00 0.548 faster 0 1.120940e+06 1.120942e+06 2.364
3 irregular 3 95 295 31 1.500000e+00 0.246 faster 0 1.120944e+06 1.120947e+06 2.677
3 irregular 3 96 296 30 2.500000e+00 0.217 faster 0 1.120948e+06 1.120952e+06 3.420
3 irregular 3 97 297 30 2.500000e+00 0.597 faster 0 1.120954e+06 1.120958e+06 3.287
3 irregular 3 98 298 30 2 0.253 slower 1 1.120960e+06 1.120963e+06 3.099
3 irregular 3 99 299 30 1 0.597 slower 1 1.120964e+06 1.120967e+06 3.134
3 irregular 3 100 300 31 1 0.304 faster 0 1.120969e+06 1.120971e+06 1.976
3 regular 4 1 301 30 2.500000e+00 0.331 faster 0 1.121021e+06 1.121025e+06 3.286
3 regular 4 2 302 90 2.500000e+00 0.463 faster 1 1.121026e+06 1.121030e+06 3.910
3 regular 4 3 303 30 2.500000e+00 0.391 faster 0 1.121032e+06 1.121036e+06 3.292
3 regular 4 4 304 30 2.500000e+00 0.563 faster 0 1.121039e+06 1.121042e+06 3.299
3 regular 4 5 305 90 2.500000e+00 0.514 faster 1 1.121044e+06 1.121048e+06 3.984
3 regular 4 6 306 31 2.500000e+00 0.572 faster 0 1.121050e+06 1.121054e+06 3.386
3 regular 4 7 307 30 2.500000e+00 0.445 faster 0 1.121056e+06 1.121059e+06 3.404
3 regular 4 8 308 90 2.500000e+00 0.146 slower 0 1.121061e+06 1.121064e+06 3.625
3 regular 4 9 309 30 2.500000e+00 0.139 faster 0 1.121066e+06 1.121070e+06 3.965
3 regular 4 10 310 90 2.500000e+00 0.373 slower 0 1.121071e+06 1.121075e+06 3.396
3 regular 4 11 311 90 2.500000e+00 0.530 slower 0 1.121078e+06 1.121081e+06 3.320
3 regular 4 12 312 90 2.500000e+00 0.205 slower 0 1.121082e+06 1.121086e+06 3.224
3 regular 4 13 313 90 2.500000e+00 0.214 slower 0 1.121087e+06 1.121090e+06 3.275
3 regular 4 14 314 90 2.500000e+00 0.173 faster 1 1.121091e+06 1.121095e+06 3.560
3 regular 4 15 315 90 2.500000e+00 0.563 faster 1 1.121097e+06 1.121102e+06 4.491
3 regular 4 16 316 31 2.500000e+00 0.211 faster 0 1.121104e+06 1.121107e+06 3.391
3 regular 4 17 317 30 2.500000e+00 0.300 faster 0 1.121109e+06 1.121113e+06 3.587
3 regular 4 18 318 90 2.500000e+00 0.511 slower 0 1.121116e+06 1.121120e+06 4.279
3 regular 4 19 319 90 2.500000e+00 0.294 faster 1 1.121121e+06 1.121125e+06 3.718
3 regular 4 20 320 90 2.500000e+00 0.448 faster 1 1.121128e+06 1.121132e+06 3.326
3 regular 4 21 321 89 2.500000e+00 0.353 faster 1 1.121134e+06 1.121137e+06 3.494
3 regular 4 22 322 89 2.500000e+00 0.231 slower 0 1.121139e+06 1.121143e+06 4.008
3 regular 4 23 323 90 2.500000e+00 0.200 faster 1 1.121146e+06 1.121150e+06 4.092
3 regular 4 24 324 31 2.500000e+00 0.596 faster 0 1.121152e+06 1.121156e+06 3.316
3 regular 4 25 325 30 2.500000e+00 0.274 faster 0 1.121157e+06 1.121160e+06 3.378
3 regular 4 26 326 90 2.500000e+00 0.199 slower 0 1.121161e+06 1.121165e+06 3.584
3 regular 4 27 327 90 2.500000e+00 0.131 slower 0 1.121166e+06 1.121170e+06 3.311
3 regular 4 28 328 90 2.500000e+00 0.239 slower 0 1.121171e+06 1.121174e+06 3.386
3 regular 4 29 329 90 2.500000e+00 0.197 faster 1 1.121176e+06 1.121179e+06 3.499
3 regular 4 30 330 30 2.500000e+00 0.334 faster 0 1.121181e+06 1.121184e+06 3.293
3 regular 4 31 331 90 2.500000e+00 0.362 faster 1 1.121185e+06 1.121189e+06 3.615
3 regular 4 32 332 31 2.500000e+00 0.361 faster 0 1.121190e+06 1.121195e+06 4.573
3 regular 4 33 333 30 2.500000e+00 0.408 faster 0 1.121196e+06 1.121199e+06 3.159
3 regular 4 34 334 90 2.500000e+00 0.141 slower 0 1.121202e+06 1.121205e+06 3.781
3 regular 4 35 335 90 2.500000e+00 0.442 slower 0 1.121207e+06 1.121211e+06 3.843
3 regular 4 36 336 30 2.500000e+00 0.350 faster 0 1.121214e+06 1.121217e+06 3.373
3 regular 4 37 337 90 2.500000e+00 0.546 faster 1 1.121220e+06 1.121224e+06 3.636
3 regular 4 38 338 90 2.500000e+00 0.174 faster 1 1.121226e+06 1.121229e+06 3.333
3 regular 4 39 339 89 2.500000e+00 0.241 slower 0 1.121231e+06 1.121235e+06 3.957
3 regular 4 40 340 90 2.500000e+00 0.594 slower 0 1.121236e+06 1.121240e+06 3.258
3 regular 4 41 341 30 2.500000e+00 0.444 faster 0 1.121242e+06 1.121246e+06 3.749
3 regular 4 42 342 30 2.500000e+00 0.590 faster 0 1.121248e+06 1.121252e+06 4.035
3 regular 4 43 343 90 2.500000e+00 0.573 faster 1 1.121254e+06 1.121258e+06 3.570
3 regular 4 44 344 30 2.500000e+00 0.201 faster 0 1.121260e+06 1.121264e+06 3.414
3 regular 4 45 345 90 2.500000e+00 0.459 slower 0 1.121269e+06 1.121272e+06 3.514
3 regular 4 46 346 30 2.500000e+00 0.165 faster 0 1.121274e+06 1.121278e+06 4.126
3 regular 4 47 347 30 2.500000e+00 0.574 faster 0 1.121280e+06 1.121284e+06 3.665
3 regular 4 48 348 30 2.500000e+00 0.383 faster 0 1.121286e+06 1.121289e+06 3.431
3 regular 4 49 349 30 2.500000e+00 0.288 faster 0 1.121291e+06 1.121295e+06 3.545
3 regular 4 50 350 90 2.500000e+00 0.386 slower 0 1.121296e+06 1.121300e+06 3.695
3 regular 4 51 351 30 2.500000e+00 0.165 faster 0 1.121301e+06 1.121305e+06 3.294
3 regular 4 52 352 30 2.500000e+00 0.562 faster 0 1.121308e+06 1.121311e+06 3.368
3 regular 4 53 353 90 2.500000e+00 0.469 slower 0 1.121313e+06 1.121317e+06 3.599
3 regular 4 54 354 90 2.500000e+00 0.170 slower 0 1.121319e+06 1.121322e+06 3.432
3 regular 4 55 355 30 2.500000e+00 0.519 faster 0 1.121325e+06 1.121328e+06 3.511
3 regular 4 56 356 90 2.500000e+00 0.525 slower 0 1.121330e+06 1.121333e+06 3.434
3 regular 4 57 357 90 2.500000e+00 0.147 slower 0 1.121335e+06 1.121338e+06 3.356
3 regular 4 58 358 90 2.500000e+00 0.213 slower 0 1.121340e+06 1.121343e+06 3.236
3 regular 4 59 359 30 2.500000e+00 0.253 faster 0 1.121345e+06 1.121349e+06 3.219
3 regular 4 60 360 30 2.500000e+00 0.303 slower 1 1.121352e+06 1.121357e+06 4.350
3 regular 4 61 361 89 2.500000e+00 0.305 faster 1 1.121359e+06 1.121362e+06 3.828
3 regular 4 62 362 89 2.500000e+00 0.400 faster 1 1.121364e+06 1.121368e+06 3.724
3 regular 4 63 363 88 2.500000e+00 0.157 slower 0 1.121370e+06 1.121375e+06 4.179
3 regular 4 64 364 31 2.500000e+00 0.396 faster 0 1.121377e+06 1.121380e+06 3.359
3 regular 4 65 365 30 2.500000e+00 0.355 faster 0 1.121383e+06 1.121387e+06 3.457
3 regular 4 66 366 90 2.500000e+00 0.199 faster 1 1.121389e+06 1.121394e+06 4.346
3 regular 4 67 367 30 2.500000e+00 0.450 faster 0 1.121396e+06 1.121400e+06 3.540
3 regular 4 68 368 30 2.500000e+00 0.170 faster 0 1.121403e+06 1.121406e+06 3.266
3 regular 4 69 369 90 2.500000e+00 0.273 faster 1 1.121408e+06 1.121412e+06 3.357
3 regular 4 70 370 89 2.500000e+00 0.453 faster 1 1.121414e+06 1.121418e+06 3.906
3 regular 4 71 371 31 2.500000e+00 0.176 faster 0 1.121420e+06 1.121423e+06 3.299
3 regular 4 72 372 30 2.500000e+00 0.303 faster 0 1.121427e+06 1.121430e+06 3.435
3 regular 4 73 373 90 2.500000e+00 0.599 slower 0 1.121433e+06 1.121437e+06 4.242
3 regular 4 74 374 30 2.500000e+00 0.174 faster 0 1.121439e+06 1.121443e+06 3.707
3 regular 4 75 375 90 2.500000e+00 0.321 faster 1 1.121444e+06 1.121448e+06 3.610
3 regular 4 76 376 89 2.500000e+00 0.415 slower 0 1.121450e+06 1.121453e+06 3.613
3 regular 4 77 377 90 2.500000e+00 0.589 faster 1 1.121456e+06 1.121459e+06 3.416
3 regular 4 78 378 30 2.500000e+00 0.530 slower 1 1.121462e+06 1.121466e+06 4.016
3 regular 4 79 379 31 2.500000e+00 0.489 slower 1 1.121467e+06 1.121471e+06 3.473
3 regular 4 80 380 89 2.500000e+00 0.545 faster 1 1.121474e+06 1.121477e+06 3.677
3 regular 4 81 381 32 2.500000e+00 0.389 faster 0 1.121480e+06 1.121483e+06 3.432
3 regular 4 82 382 31 2.500000e+00 0.547 slower 1 1.121486e+06 1.121489e+06 3.259
3 regular 4 83 383 31 2.500000e+00 0.415 slower 1 1.121491e+06 1.121494e+06 3.284
3 regular 4 84 384 32 2.500000e+00 0.285 slower 1 1.121496e+06 1.121500e+06 4.155
3 regular 4 85 385 32 2.500000e+00 0.110 slower 1 1.121502e+06 1.121506e+06 3.380
3 regular 4 86 386 33 2.500000e+00 0.446 slower 1 1.121508e+06 1.121512e+06 3.332
3 regular 4 87 387 33 2.500000e+00 0.243 faster 0 1.121513e+06 1.121517e+06 3.361
3 regular 4 88 388 88 2.500000e+00 0.524 faster 1 1.121518e+06 1.121522e+06 3.548
3 regular 4 89 389 33 2.500000e+00 0.539 faster 0 1.121524e+06 1.121527e+06 3.238
3 regular 4 90 390 32 2.500000e+00 0.284 faster 0 1.121528e+06 1.121532e+06 3.259
3 regular 4 91 391 89 2.500000e+00 0.114 faster 1 1.121534e+06 1.121537e+06 3.388
3 regular 4 92 392 89 2.500000e+00 0.365 faster 1 1.121539e+06 1.121543e+06 3.811
3 regular 4 93 393 88 2.500000e+00 0.363 faster 1 1.121545e+06 1.121549e+06 3.550
3 regular 4 94 394 32 2.500000e+00 0.486 faster 0 1.121552e+06 1.121555e+06 3.242
3 regular 4 95 395 31 2.500000e+00 0.439 faster 0 1.121557e+06 1.121560e+06 3.369
3 regular 4 96 396 30 2.500000e+00 0.253 faster 0 1.121563e+06 1.121566e+06 3.195
3 regular 4 97 397 30 2.500000e+00 0.429 faster 0 1.121568e+06 1.121571e+06 3.221
3 regular 4 98 398 30 2.500000e+00 0.467 faster 0 1.121573e+06 1.121576e+06 3.643
3 regular 4 99 399 90 2.500000e+00 0.591 faster 1 1.121578e+06 1.121582e+06 3.806
3 regular 4 100 400 31 2.500000e+00 0.497 faster 0 1.121584e+06 1.121587e+06 3.207
3 irregular 5 1 401 30 2.500000e+00 0.437 faster 0 1.121617e+06 1.121620e+06 3.184
3 irregular 5 2 402 90 3 0.533 faster 1 1.121622e+06 1.121626e+06 3.915
3 irregular 5 3 403 30 1.500000e+00 0.485 faster 0 1.121629e+06 1.121632e+06 2.243
3 irregular 5 4 404 30 2.500000e+00 0.499 faster 0 1.121634e+06 1.121638e+06 3.982
3 irregular 5 5 405 90 2.500000e+00 0.431 faster 1 1.121639e+06 1.121643e+06 3.463
3 irregular 5 6 406 31 2.500000e+00 0.111 faster 0 1.121644e+06 1.121647e+06 3.086
3 irregular 5 7 407 30 1.500000e+00 0.256 faster 0 1.121649e+06 1.121651e+06 2.265
3 irregular 5 8 408 30 2.500000e+00 0.143 faster 0 1.121653e+06 1.121656e+06 3.130
3 irregular 5 9 409 30 3 0.399 faster 0 1.121657e+06 1.121661e+06 3.687
3 irregular 5 10 410 30 3 0.402 faster 0 1.121663e+06 1.121667e+06 3.995
3 irregular 5 11 411 30 3 0.272 faster 0 1.121668e+06 1.121672e+06 3.685
3 irregular 5 12 412 90 1 0.584 slower 0 1.121674e+06 1.121677e+06 2.966
3 irregular 5 13 413 30 3 0.236 faster 0 1.121680e+06 1.121684e+06 4.045
3 irregular 5 14 414 30 2 0.253 faster 0 1.121687e+06 1.121690e+06 2.716
3 irregular 5 15 415 90 2.500000e+00 0.540 faster 1 1.121692e+06 1.121696e+06 4.101
3 irregular 5 16 416 90 3 0.358 faster 1 1.121698e+06 1.121702e+06 4.169
3 irregular 5 17 417 89 1.500000e+00 0.187 faster 1 1.121704e+06 1.121707e+06 3.125
3 irregular 5 18 418 89 2 0.580 faster 1 1.121709e+06 1.121712e+06 3.264
3 irregular 5 19 419 88 1 0.560 faster 1 1.121714e+06 1.121716e+06 1.785
3 irregular 5 20 420 88 2 0.231 faster 1 1.121718e+06 1.121721e+06 2.901
3 irregular 5 21 421 87 1 0.550 faster 1 1.121724e+06 1.121726e+06 2.587
3 irregular 5 22 422 87 1.500000e+00 0.245 faster 1 1.121728e+06 1.121731e+06 2.803
3 irregular 5 23 423 34 1.500000e+00 0.142 faster 0 1.121732e+06 1.121735e+06 2.580
3 irregular 5 24 424 33 1 0.271 faster 0 1.121736e+06 1.121738e+06 1.739
3 irregular 5 25 425 32 2 0.346 faster 0 1.121739e+06 1.121742e+06 2.965
3 irregular 5 26 426 89 1.500000e+00 0.299 faster 1 1.121743e+06 1.121746e+06 2.259
3 irregular 5 27 427 31 1 0.469 faster 0 1.121748e+06 1.121751e+06 2.484
3 irregular 5 28 428 30 1.500000e+00 0.469 faster 0 1.121753e+06 1.121756e+06 2.698
3 irregular 5 29 429 90 2.500000e+00 0.483 faster 1 1.121758e+06 1.121762e+06 3.720
3 irregular 5 30 430 89 2.500000e+00 0.299 slower 0 1.121764e+06 1.121768e+06 3.839
3 irregular 5 31 431 30 1.500000e+00 0.235 faster 0 1.121770e+06 1.121772e+06 2.179
3 irregular 5 32 432 90 3 0.511 slower 0 1.121774e+06 1.121779e+06 4.678
3 irregular 5 33 433 90 2 0.347 faster 1 1.121781e+06 1.121784e+06 3.019
3 irregular 5 34 434 90 2 0.343 faster 1 1.121786e+06 1.121789e+06 3.274
3 irregular 5 35 435 89 1.500000e+00 0.324 faster 1 1.121791e+06 1.121793e+06 2.356
3 irregular 5 36 436 89 3 0.559 faster 1 1.121795e+06 1.121799e+06 4.226
3 irregular 5 37 437 88 2 0.325 faster 1 1.121801e+06 1.121804e+06 2.911
3 irregular 5 38 438 88 2.500000e+00 0.428 faster 1 1.121806e+06 1.121809e+06 3.275
3 irregular 5 39 439 87 2.500000e+00 0.286 faster 1 1.121811e+06 1.121814e+06 3.840
3 irregular 5 40 440 87 1 0.401 slower 0 1.121816e+06 1.121819e+06 2.267
3 irregular 5 41 441 32 2 0.368 faster 0 1.121820e+06 1.121823e+06 3.121
3 irregular 5 42 442 31 2.500000e+00 0.133 faster 0 1.121825e+06 1.121828e+06 3.550
3 irregular 5 43 443 30 2.500000e+00 0.287 faster 0 1.121830e+06 1.121833e+06 3.490
3 irregular 5 44 444 30 3 0.172 faster 0 1.121835e+06 1.121833e+06 -1.357
3 irregular 5 45 445 30 1.500000e+00 0.418 faster 0 1.121839e+06 1.121842e+06 2.280
3 irregular 5 46 446 30 3 0.530 faster 0 1.121844e+06 1.121847e+06 3.589
3 irregular 5 47 447 90 2.500000e+00 0.543 faster 1 1.121850e+06 1.121854e+06 3.907
3 irregular 5 48 448 31 2 0.488 faster 0 1.121856e+06 1.121858e+06 2.867
3 irregular 5 49 449 90 2 0.315 faster 1 1.121860e+06 1.121863e+06 3.379
3 irregular 5 50 450 30 2 0.390 faster 0 1.121865e+06 1.121868e+06 3.020
3 irregular 5 51 451 30 3 0.373 faster 0 1.121870e+06 1.121873e+06 3.776
3 irregular 5 52 452 30 1 0.121 none 2 1.121875e+06 1.121879e+06 3.999
3 irregular 5 53 453 30 1 0.589 faster 0 1.121880e+06 1.121882e+06 1.868
3 irregular 5 54 454 30 1 0.526 slower 1 1.121887e+06 1.121889e+06 2.065
3 irregular 5 55 455 89 1.500000e+00 0.390 slower 0 1.121891e+06 1.121893e+06 2.465
3 irregular 5 56 456 30 3 0.494 faster 0 1.121895e+06 1.121899e+06 3.778
3 irregular 5 57 457 90 2 0.460 faster 1 1.121901e+06 1.121904e+06 3.216
3 irregular 5 58 458 30 2.500000e+00 0.532 slower 1 1.121906e+06 1.121910e+06 4.003
3 irregular 5 59 459 31 1.500000e+00 0.289 slower 1 1.121912e+06 1.121915e+06 3.120
3 irregular 5 60 460 31 1.500000e+00 0.186 slower 1 1.121917e+06 1.121921e+06 3.622
3 irregular 5 61 461 32 2 0.185 faster 0 1.121923e+06 1.121926e+06 3.434
3 irregular 5 62 462 89 1.500000e+00 0.209 faster 1 1.121930e+06 1.121933e+06 2.539
3 irregular 5 63 463 31 1.500000e+00 0.354 faster 0 1.121935e+06 1.121938e+06 2.322
3 irregular 5 64 464 90 3 0.194 faster 1 1.121939e+06 1.121943e+06 3.870
3 irregular 5 65 465 89 2 0.533 faster 1 1.121945e+06 1.121947e+06 2.754
3 irregular 5 66 466 89 3 0.536 faster 1 1.121949e+06 1.121953e+06 3.871
3 irregular 5 67 467 88 1.500000e+00 0.465 faster 1 1.121956e+06 1.121958e+06 2.416
3 irregular 5 68 468 32 1 0.513 faster 0 1.121960e+06 1.121962e+06 1.816
3 irregular 5 69 469 31 2 0.491 faster 0 1.121964e+06 1.121967e+06 3.282
3 irregular 5 70 470 90 3 0.343 faster 1 1.121972e+06 1.121976e+06 3.882
3 irregular 5 71 471 89 1 0.517 faster 1 1.121978e+06 1.121981e+06 2.255
3 irregular 5 72 472 89 1 0.547 slower 0 1.121983e+06 1.121985e+06 2.436
3 irregular 5 73 473 30 2 0.297 faster 0 1.121989e+06 1.121993e+06 3.318
3 irregular 5 74 474 90 1.500000e+00 0.562 faster 1 1.121994e+06 1.121996e+06 2.723
3 irregular 5 75 475 31 1.500000e+00 0.527 faster 0 1.121998e+06 1.122001e+06 2.394
3 irregular 5 76 476 90 3 0.283 faster 1 1.122002e+06 1.122006e+06 4.142
3 irregular 5 77 477 90 1 0.293 faster 1 1.122008e+06 1.122010e+06 1.737
3 irregular 5 78 478 31 3 0.537 faster 0 1.122020e+06 1.122024e+06 3.674
3 irregular 5 79 479 30 1 0.103 none 2 1.122026e+06 1.122030e+06 3.999
3 irregular 5 80 480 30 2 0.267 faster 0 1.122031e+06 1.122033e+06 2.712
3 irregular 5 81 481 30 3 0.330 faster 0 1.122035e+06 1.122039e+06 3.620
3 irregular 5 82 482 90 2.500000e+00 0.501 faster 1 1.122048e+06 1.122051e+06 3.395
3 irregular 5 83 483 90 1 0.413 slower 0 1.122053e+06 1.122055e+06 1.951
3 irregular 5 84 484 90 3 0.492 slower 0 1.122058e+06 1.122062e+06 4.150
3 irregular 5 85 485 90 2.500000e+00 0.469 slower 0 1.122064e+06 1.122068e+06 3.329
3 irregular 5 86 486 30 1 0.489 faster 0 1.122069e+06 1.122071e+06 1.794
3 irregular 5 87 487 90 3 0.131 slower 0 1.122073e+06 1.122077e+06 4.092
3 irregular 5 88 488 30 2.500000e+00 0.168 faster 0 1.122085e+06 1.122089e+06 3.230
3 irregular 5 89 489 90 1 0.519 faster 1 1.122092e+06 1.122094e+06 1.964
3 irregular 5 90 490 89 2.500000e+00 0.434 none 2 1.122096e+06 1.122101e+06 5.500
3 irregular 5 91 491 89 1.500000e+00 0.213 faster 1 1.122105e+06 1.122108e+06 2.646
3 irregular 5 92 492 31 2 0.555 faster 0 1.122114e+06 1.122117e+06 2.850
3 irregular 5 93 493 30 2.500000e+00 0.389 faster 0 1.122118e+06 1.122122e+06 3.264
3 irregular 5 94 494 90 1 0.418 faster 1 1.122124e+06 1.122125e+06 1.821
3 irregular 5 95 495 31 1 0.282 slower 1 1.122127e+06 1.122130e+06 2.865
3 irregular 5 96 496 31 2.500000e+00 0.212 faster 0 1.122133e+06 1.122136e+06 3.635
3 irregular 5 97 497 30 1 0.556 faster 0 1.122139e+06 1.122141e+06 1.704
3 irregular 5 98 498 90 2 0.497 slower 0 1.122143e+06 1.122146e+06 3.029
3 irregular 5 99 499 90 1.500000e+00 0.459 none 2 1.122149e+06 1.122153e+06 4.499
3 irregular 5 100 500 90 2 0.558 slower 0 1.122164e+06 1.122167e+06 3.337
3 regular 6 1 501 74 1.500000e+00 0.262 faster 1 1.204415e+06 1.204417e+06 2.266
3 regular 6 2 502 74 1.500000e+00 0.488 faster 1 1.204419e+06 1.204421e+06 2.126
3 regular 6 3 503 48 1.500000e+00 0.393 faster 0 1.204423e+06 1.204425e+06 2.294
3 regular 6 4 504 46 1.500000e+00 0.507 faster 0 1.204427e+06 1.204429e+06 2.146
3 regular 6 5 505 76 1.500000e+00 0.462 faster 1 1.204431e+06 1.204433e+06 2.098
3 regular 6 6 506 44 1.500000e+00 0.550 slower 1 1.204435e+06 1.204437e+06 2.607
3 regular 6 7 507 46 1.500000e+00 0.502 slower 1 1.204439e+06 1.204442e+06 2.432
3 regular 6 8 508 74 1.500000e+00 0.457 faster 1 1.204444e+06 1.204447e+06 2.328
3 regular 6 9 509 72 1.500000e+00 0.264 faster 1 1.204448e+06 1.204450e+06 2.215
3 regular 6 10 510 48 1.500000e+00 0.194 slower 1 1.204451e+06 1.204453e+06 2.214
3 regular 6 11 511 70 1.500000e+00 0.511 faster 1 1.204455e+06 1.204457e+06 2.497
3 regular 6 12 512 50 1.500000e+00 0.180 faster 0 1.204458e+06 1.204460e+06 2.236
3 regular 6 13 513 48 1.500000e+00 0.487 faster 0 1.204462e+06 1.204464e+06 2.191
3 regular 6 14 514 46 1.500000e+00 0.346 slower 1 1.204466e+06 1.204468e+06 2.403
3 regular 6 15 515 48 1.500000e+00 0.329 slower 1 1.204470e+06 1.204473e+06 2.722
3 regular 6 16 516 72 1.500000e+00 0.406 faster 1 1.204474e+06 1.204477e+06 2.688
3 regular 6 17 517 71 1.500000e+00 0.477 faster 1 1.204479e+06 1.204481e+06 2.277
3 regular 6 18 518 49 1.500000e+00 0.535 faster 0 1.204483e+06 1.204485e+06 2.409
3 regular 6 19 519 48 1.500000e+00 0.112 faster 0 1.204487e+06 1.204489e+06 2.351
3 regular 6 20 520 47 1.500000e+00 0.447 slower 1 1.204491e+06 1.204493e+06 2.309
3 regular 6 21 521 72 1.500000e+00 0.553 faster 1 1.204495e+06 1.204497e+06 2.273
3 regular 6 22 522 48 1.500000e+00 0.156 slower 1 1.204499e+06 1.204501e+06 2.792
3 regular 6 23 523 49 1.500000e+00 0.505 faster 0 1.204503e+06 1.204506e+06 2.671
3 regular 6 24 524 48 1.500000e+00 0.334 slower 1 1.204508e+06 1.204510e+06 2.459
3 regular 6 25 525 72 1.500000e+00 0.459 faster 1 1.204512e+06 1.204514e+06 2.142
3 regular 6 26 526 49 1.500000e+00 0.590 slower 1 1.204516e+06 1.204518e+06 2.547
3 regular 6 27 527 71 1.500000e+00 0.598 faster 1 1.204520e+06 1.204523e+06 3.062
3 regular 6 28 528 50 1.500000e+00 0.419 faster 0 1.204524e+06 1.204527e+06 2.472
3 regular 6 29 529 71 1.500000e+00 0.232 faster 1 1.204528e+06 1.204530e+06 2.437
3 regular 6 30 530 49 1.500000e+00 0.304 faster 0 1.204532e+06 1.204535e+06 2.808
3 regular 6 31 531 48 1.500000e+00 0.384 faster 0 1.204536e+06 1.204539e+06 3.014
3 regular 6 32 532 73 1.500000e+00 0.540 faster 1 1.204541e+06 1.204543e+06 2.517
3 regular 6 33 533 72 1.500000e+00 0.134 faster 1 1.204544e+06 1.204547e+06 2.204
3 regular 6 34 534 72 1.500000e+00 0.172 faster 1 1.204548e+06 1.204550e+06 2.336
3 regular 6 35 535 71 1.500000e+00 0.207 faster 1 1.204552e+06 1.204554e+06 2.104
3 regular 6 36 536 49 1.500000e+00 0.211 slower 1 1.204556e+06 1.204558e+06 2.475
3 regular 6 37 537 70 1.500000e+00 0.447 faster 1 1.204560e+06 1.204562e+06 2.099
3 regular 6 38 538 50 1.500000e+00 0.110 faster 0 1.204563e+06 1.204566e+06 2.559
3 regular 6 39 539 71 1.500000e+00 0.245 faster 1 1.204567e+06 1.204569e+06 2.058
3 regular 6 40 540 70 1.500000e+00 0.521 faster 1 1.204571e+06 1.204573e+06 2.086
3 regular 6 41 541 50 1.500000e+00 0.135 faster 0 1.204574e+06 1.204577e+06 2.074
3 regular 6 42 542 71 1.500000e+00 0.581 faster 1 1.204578e+06 1.204580e+06 2.097
3 regular 6 43 543 50 1.500000e+00 0.171 slower 1 1.204582e+06 1.204584e+06 2.451
3 regular 6 44 544 50 1.500000e+00 0.588 slower 1 1.204586e+06 1.204588e+06 2.371
3 regular 6 45 545 51 1.500000e+00 0.192 faster 0 1.204590e+06 1.204593e+06 2.797
3 regular 6 46 546 70 1.500000e+00 0.360 faster 1 1.204594e+06 1.204597e+06 2.160
3 regular 6 47 547 70 1.500000e+00 0.456 faster 1 1.204599e+06 1.204601e+06 2.037
3 regular 6 48 548 69 1.500000e+00 0.294 faster 1 1.204602e+06 1.204604e+06 2.028
3 regular 6 49 549 69 1.500000e+00 0.583 slower 0 1.204606e+06 1.204608e+06 2.427
3 regular 6 50 550 50 1.500000e+00 0.489 faster 0 1.204610e+06 1.204613e+06 2.880
3 regular 6 51 551 49 1.500000e+00 0.161 faster 0 1.204615e+06 1.204617e+06 2.190
3 regular 6 52 552 72 1.500000e+00 0.224 faster 1 1.204619e+06 1.204621e+06 2.310
3 regular 6 53 553 71 1.500000e+00 0.185 faster 1 1.204622e+06 1.204624e+06 2.202
3 regular 6 54 554 49 1.500000e+00 0.434 faster 0 1.204626e+06 1.204628e+06 2.050
3 regular 6 55 555 72 1.500000e+00 0.552 faster 1 1.204630e+06 1.204632e+06 2.091
3 regular 6 56 556 49 1.500000e+00 0.123 slower 1 1.204633e+06 1.204635e+06 2.510
3 regular 6 57 557 49 1.500000e+00 0.343 slower 1 1.204637e+06 1.204639e+06 2.358
3 regular 6 58 558 70 1.500000e+00 0.118 faster 1 1.204640e+06 1.204643e+06 2.574
3 regular 6 59 559 70 1.500000e+00 0.280 faster 1 1.204644e+06 1.204647e+06 2.573
3 regular 6 60 560 51 1.500000e+00 0.151 faster 0 1.204648e+06 1.204650e+06 2.355
3 regular 6 61 561 70 1.500000e+00 0.200 faster 1 1.204651e+06 1.204654e+06 2.326
3 regular 6 62 562 50 1.500000e+00 0.531 faster 0 1.204656e+06 1.204658e+06 2.411
3 regular 6 63 563 49 1.500000e+00 0.126 slower 1 1.204659e+06 1.204661e+06 2.144
3 regular 6 64 564 50 1.500000e+00 0.447 slower 1 1.204663e+06 1.204665e+06 2.262
3 regular 6 65 565 50 1.500000e+00 0.482 slower 1 1.204667e+06 1.204669e+06 2.190
3 regular 6 66 566 69 1.500000e+00 0.164 faster 1 1.204671e+06 1.204673e+06 2.091
3 regular 6 67 567 69 1.500000e+00 0.302 faster 1 1.204674e+06 1.204676e+06 2.079
3 regular 6 68 568 52 1.500000e+00 0.105 faster 0 1.204678e+06 1.204680e+06 2.015
3 regular 6 69 569 51 1.500000e+00 0.368 faster 0 1.204681e+06 1.204684e+06 2.168
3 regular 6 70 570 50 1.500000e+00 0.433 slower 1 1.204685e+06 1.204687e+06 2.192
3 regular 6 71 571 70 1.500000e+00 0.114 faster 1 1.204688e+06 1.204691e+06 2.195
3 regular 6 72 572 69 1.500000e+00 0.169 faster 1 1.204692e+06 1.204694e+06 2.513
3 regular 6 73 573 51 1.500000e+00 0.337 faster 0 1.204696e+06 1.204698e+06 2.192
3 regular 6 74 574 70 1.500000e+00 0.526 faster 1 1.204700e+06 1.204702e+06 2.065
3 regular 6 75 575 51 1.500000e+00 0.367 faster 0 1.204703e+06 1.204705e+06 2.111
3 regular 6 76 576 70 1.500000e+00 0.580 faster 1 1.204707e+06 1.204709e+06 1.952
3 regular 6 77 577 50 1.500000e+00 0.260 faster 0 1.204710e+06 1.204713e+06 2.173
3 regular 6 78 578 49 1.500000e+00 0.579 faster 0 1.204714e+06 1.204716e+06 2.045
3 regular 6 79 579 72 1.500000e+00 0.364 faster 1 1.204718e+06 1.204720e+06 2.171
3 regular 6 80 580 49 1.500000e+00 0.571 faster 0 1.204721e+06 1.204723e+06 1.948
3 regular 6 81 581 48 1.500000e+00 0.170 faster 0 1.204725e+06 1.204727e+06 2.119
3 regular 6 82 582 73 1.500000e+00 0.237 faster 1 1.204728e+06 1.204731e+06 2.158
3 regular 6 83 583 47 1.500000e+00 0.453 slower 1 1.204732e+06 1.204735e+06 2.947
3 regular 6 84 584 72 1.500000e+00 0.332 faster 1 1.204736e+06 1.204738e+06 2.389
3 regular 6 85 585 72 1.500000e+00 0.196 slower 0 1.204740e+06 1.204742e+06 2.275
3 regular 6 86 586 73 1.500000e+00 0.340 faster 1 1.204744e+06 1.204747e+06 3.043
3 regular 6 87 587 48 1.500000e+00 0.171 slower 1 1.204748e+06 1.204751e+06 2.599
3 regular 6 88 588 72 1.500000e+00 0.173 faster 1 1.204752e+06 1.204755e+06 2.575
3 regular 6 89 589 71 1.500000e+00 0.426 slower 0 1.204756e+06 1.204759e+06 2.637
3 regular 6 90 590 72 1.500000e+00 0.300 faster 1 1.204760e+06 1.204762e+06 2.181
3 regular 6 91 591 72 1.500000e+00 0.475 faster 1 1.204764e+06 1.204766e+06 2.146
3 regular 6 92 592 71 1.500000e+00 0.510 faster 1 1.204768e+06 1.204770e+06 2.099
3 regular 6 93 593 49 1.500000e+00 0.361 slower 1 1.204772e+06 1.204774e+06 2.245
3 regular 6 94 594 50 1.500000e+00 0.143 slower 1 1.204775e+06 1.204778e+06 2.485
3 regular 6 95 595 50 1.500000e+00 0.151 slower 1 1.204779e+06 1.204781e+06 2.039
3 regular 6 96 596 69 1.500000e+00 0.384 faster 1 1.204783e+06 1.204786e+06 2.496
3 regular 6 97 597 69 1.500000e+00 0.418 faster 1 1.204788e+06 1.204790e+06 2.308
3 regular 6 98 598 68 1.500000e+00 0.401 faster 1 1.204792e+06 1.204794e+06 2.339
3 regular 6 99 599 52 1.500000e+00 0.108 slower 1 1.204795e+06 1.204797e+06 2.231
3 regular 6 100 600 67 1.500000e+00 0.426 slower 0 1.204799e+06 1.204801e+06 2.491
3 irregular 7 1 601 52 1.500000e+00 0.443 faster 0 1.204820e+06 1.204822e+06 2.324
3 irregular 7 2 602 51 3 0.443 faster 0 1.204824e+06 1.204828e+06 3.744
3 irregular 7 3 603 50 1 0.576 slower 1 1.204831e+06 1.204833e+06 2.159
3 irregular 7 4 604 70 3 0.491 faster 1 1.204834e+06 1.204838e+06 3.853
3 irregular 7 5 605 51 2.500000e+00 0.549 faster 0 1.204840e+06 1.204844e+06 3.355
3 irregular 7 6 606 70 3 0.516 slower 0 1.204845e+06 1.204849e+06 4.002
3 irregular 7 7 607 71 2.500000e+00 0.277 slower 0 1.204850e+06 1.204854e+06 3.464
3 irregular 7 8 608 48 1 0.274 faster 0 1.204855e+06 1.204857e+06 2.018
3 irregular 7 9 609 47 3 0.303 faster 0 1.204859e+06 1.204863e+06 4.634
3 irregular 7 10 610 74 2 0.318 faster 1 1.204865e+06 1.204868e+06 3.570
3 irregular 7 11 611 46 1 0.470 slower 1 1.204870e+06 1.204872e+06 2.349
3 irregular 7 12 612 47 3 0.433 slower 1 1.204874e+06 1.204878e+06 4.420
3 irregular 7 13 613 73 3 0.489 slower 0 1.204880e+06 1.204884e+06 4.379
3 irregular 7 14 614 74 1.500000e+00 0.310 faster 1 1.204886e+06 1.204888e+06 2.351
3 irregular 7 15 615 73 2.500000e+00 0.590 faster 1 1.204890e+06 1.204893e+06 3.394
3 irregular 7 16 616 47 2.500000e+00 0.311 slower 1 1.204895e+06 1.204898e+06 3.514
3 irregular 7 17 617 48 1.500000e+00 0.485 faster 0 1.204900e+06 1.204903e+06 2.544
3 irregular 7 18 618 47 2 0.403 slower 1 1.204904e+06 1.204906e+06 2.796
3 irregular 7 19 619 47 1.500000e+00 0.355 slower 1 1.204908e+06 1.204911e+06 2.723
3 irregular 7 20 620 48 1 0.353 slower 1 1.204912e+06 1.204915e+06 2.277
3 irregular 7 21 621 72 2.500000e+00 0.421 faster 1 1.204916e+06 1.204919e+06 3.326
3 irregular 7 22 622 71 1 0.173 faster 1 1.204920e+06 1.204922e+06 1.899
3 irregular 7 23 623 71 1 0.386 faster 1 1.204923e+06 1.204925e+06 1.789
3 irregular 7 24 624 50 2 0.405 slower 1 1.204933e+06 1.204936e+06 3.137
3 irregular 7 25 625 70 2 0.329 faster 1 1.204939e+06 1.204942e+06 2.813
3 irregular 7 26 626 51 3 0.497 faster 0 1.204944e+06 1.204948e+06 3.931
3 irregular 7 27 627 70 3 0.475 faster 1 1.204949e+06 1.204954e+06 4.264
3 irregular 7 28 628 70 2 0.444 faster 1 1.204955e+06 1.204958e+06 2.625
3 irregular 7 29 629 51 2.500000e+00 0.572 faster 0 1.204960e+06 1.204963e+06 3.814
3 irregular 7 30 630 50 1.500000e+00 0.546 faster 0 1.204966e+06 1.204969e+06 2.642
3 irregular 7 31 631 71 1 0.163 faster 1 1.204970e+06 1.204972e+06 1.705
3 irregular 7 32 632 71 1.500000e+00 0.527 faster 1 1.204974e+06 1.204976e+06 2.322
3 irregular 7 33 633 70 2.500000e+00 0.350 faster 1 1.204977e+06 1.204981e+06 3.606
3 irregular 7 34 634 70 1 0.284 faster 1 1.204982e+06 1.204984e+06 1.749
3 irregular 7 35 635 51 3 0.574 slower 1 1.204986e+06 1.204990e+06 4.016
3 irregular 7 36 636 51 1 0.462 slower 1 1.204991e+06 1.204993e+06 2.049
3 irregular 7 37 637 52 2.500000e+00 0.126 slower 1 1.204995e+06 1.204998e+06 3.539
3 irregular 7 38 638 52 2 0.548 faster 0 1.205000e+06 1.205003e+06 3.020
3 irregular 7 39 639 69 1 0.396 faster 1 1.205005e+06 1.205007e+06 2.257
3 irregular 7 40 640 52 2 0.458 faster 0 1.205009e+06 1.205012e+06 3.414
3 irregular 7 41 641 69 3 0.216 faster 1 1.205014e+06 1.205018e+06 4.158
3 irregular 7 42 642 51 2.500000e+00 0.589 faster 0 1.205020e+06 1.205024e+06 3.766
3 irregular 7 43 643 50 3 0.559 faster 0 1.205026e+06 1.205030e+06 4.541
3 irregular 7 44 644 71 2 0.456 faster 1 1.205033e+06 1.205036e+06 3.100
3 irregular 7 45 645 70 1 0.373 faster 1 1.205039e+06 1.205041e+06 2.280
3 irregular 7 46 646 70 1.500000e+00 0.220 slower 0 1.205043e+06 1.205046e+06 2.917
3 irregular 7 47 647 49 2.500000e+00 0.266 faster 0 1.205048e+06 1.205053e+06 4.370
3 irregular 7 48 648 48 1.500000e+00 0.102 slower 1 1.205055e+06 1.205058e+06 3.044
3 irregular 7 49 649 49 1.500000e+00 0.275 faster 0 1.205061e+06 1.205064e+06 3.027
3 irregular 7 50 650 48 1.500000e+00 0.380 slower 1 1.205066e+06 1.205068e+06 2.308
3 irregular 7 51 651 48 3 0.350 slower 1 1.205074e+06 1.205078e+06 4.039
3 irregular 7 52 652 49 2 0.442 faster 0 1.205082e+06 1.205085e+06 2.989
3 irregular 7 53 653 72 1.500000e+00 0.444 slower 0 1.205087e+06 1.205090e+06 2.816
3 irregular 7 54 654 73 1.500000e+00 0.310 faster 1 1.205092e+06 1.205094e+06 2.510
3 irregular 7 55 655 73 1.500000e+00 0.383 faster 1 1.205096e+06 1.205099e+06 2.635
3 irregular 7 56 656 48 1 0.320 slower 1 1.205101e+06 1.205102e+06 1.803
3 irregular 7 57 657 48 1 0.406 slower 1 1.205104e+06 1.205106e+06 1.658
3 irregular 7 58 658 71 2 0.589 slower 0 1.205109e+06 1.205111e+06 2.200
3 irregular 7 59 659 72 1.500000e+00 0.449 faster 1 1.205113e+06 1.205116e+06 2.743
3 irregular 7 60 660 48 1 0.350 faster 0 1.205118e+06 1.205119e+06 1.910
3 irregular 7 61 661 73 2 0.232 faster 1 1.205122e+06 1.205124e+06 2.671
3 irregular 7 62 662 72 1.500000e+00 0.397 faster 1 1.205126e+06 1.205129e+06 2.293
3 irregular 7 63 663 72 3 0.320 none 2 1.205131e+06 1.205137e+06 6.000
3 irregular 7 64 664 48 2 0.291 faster 0 1.205138e+06 1.205141e+06 3.236
3 irregular 7 65 665 73 2 0.459 faster 1 1.205144e+06 1.205147e+06 2.783
3 irregular 7 66 666 72 1.500000e+00 0.258 faster 1 1.205148e+06 1.205150e+06 2.204
3 irregular 7 67 667 72 3 0.366 faster 1 1.205152e+06 1.205156e+06 4.097
3 irregular 7 68 668 49 1.500000e+00 0.236 slower 1 1.205162e+06 1.205165e+06 3.810
3 irregular 7 69 669 71 2.500000e+00 0.390 faster 1 1.205170e+06 1.205174e+06 3.649
3 irregular 7 70 670 50 1.500000e+00 0.555 faster 0 1.205177e+06 1.205180e+06 2.820
3 irregular 7 71 671 71 2 0.275 faster 1 1.205182e+06 1.205185e+06 2.755
3 irregular 7 72 672 71 2 0.326 slower 0 1.205188e+06 1.205192e+06 3.761
3 irregular 7 73 673 48 2.500000e+00 0.305 slower 1 1.205194e+06 1.205198e+06 4.321
3 irregular 7 74 674 71 2 0.385 faster 1 1.205201e+06 1.205204e+06 2.890
3 irregular 7 75 675 71 3 0.153 faster 1 1.205207e+06 1.205211e+06 3.665
3 irregular 7 76 676 70 1 0.419 slower 0 1.205220e+06 1.205222e+06 2.084
3 irregular 7 77 677 71 1.500000e+00 0.398 faster 1 1.205224e+06 1.205227e+06 2.580
3 irregular 7 78 678 71 1 0.600 faster 1 1.205230e+06 1.205232e+06 1.924
3 irregular 7 79 679 50 2.500000e+00 0.110 faster 0 1.205234e+06 1.205238e+06 3.601
3 irregular 7 80 680 71 2.500000e+00 0.349 faster 1 1.205240e+06 1.205244e+06 3.690
3 irregular 7 81 681 71 3 0.114 faster 1 1.205246e+06 1.205249e+06 3.814
3 irregular 7 82 682 50 2 0.495 slower 1 1.205252e+06 1.205255e+06 3.204
3 irregular 7 83 683 50 1 0.563 slower 1 1.205257e+06 1.205259e+06 2.051
3 irregular 7 84 684 51 3 0.157 slower 1 1.205261e+06 1.205265e+06 4.090
3 irregular 7 85 685 69 1 0.112 faster 1 1.205266e+06 1.205268e+06 2.079
3 irregular 7 86 686 68 2.500000e+00 0.571 faster 1 1.205271e+06 1.205275e+06 4.714
3 irregular 7 87 687 52 3 0.257 faster 0 1.205279e+06 1.205283e+06 3.818
3 irregular 7 88 688 51 2.500000e+00 0.262 faster 0 1.205285e+06 1.205288e+06 3.496
3 irregular 7 89 689 50 2 0.247 faster 0 1.205290e+06 1.205293e+06 3.136
3 irregular 7 90 690 49 1 0.447 faster 0 1.205295e+06 1.205298e+06 2.653
3 irregular 7 91 691 72 2.500000e+00 0.445 faster 1 1.205300e+06 1.205304e+06 4.089
3 irregular 7 92 692 49 2 0.167 faster 0 1.205306e+06 1.205309e+06 2.847
3 irregular 7 93 693 72 1 0.352 slower 0 1.205310e+06 1.205312e+06 2.079
3 irregular 7 94 694 73 2.500000e+00 0.236 faster 1 1.205314e+06 1.205317e+06 3.293
3 irregular 7 95 695 47 2 0.440 faster 0 1.205320e+06 1.205323e+06 2.726
3 irregular 7 96 696 46 3 0.575 faster 0 1.205326e+06 1.205330e+06 3.809
3 irregular 7 97 697 45 2.500000e+00 0.585 faster 0 1.205332e+06 1.205335e+06 3.463
3 irregular 7 98 698 76 2.500000e+00 0.496 faster 1 1.205337e+06 1.205341e+06 3.769
3 irregular 7 99 699 75 3 0.260 slower 0 1.205343e+06 1.205348e+06 5.041
3 irregular 7 100 700 44 1.500000e+00 0.269 slower 1 1.205349e+06 1.205352e+06 2.855
3 regular 8 1 701 76 3 0.357 faster 1 1.205380e+06 1.205383e+06 3.716
3 regular 8 2 702 75 3 0.450 faster 1 1.205384e+06 1.205388e+06 3.522
3 regular 8 3 703 45 3 0.230 faster 0 1.205389e+06 1.205393e+06 3.842
3 regular 8 4 704 44 3 0.539 faster 0 1.205395e+06 1.205399e+06 3.853
3 regular 8 5 705 77 3 0.331 faster 1 1.205400e+06 1.205404e+06 3.746
3 regular 8 6 706 76 3 0.162 faster 1 1.205405e+06 1.205409e+06 3.705
3 regular 8 7 707 76 3 0.126 faster 1 1.205410e+06 1.205414e+06 3.709
3 regular 8 8 708 75 3 0.369 faster 1 1.205415e+06 1.205419e+06 3.667
3 regular 8 9 709 75 3 0.267 faster 1 1.205420e+06 1.205424e+06 3.675
3 regular 8 10 710 46 3 0.428 slower 1 1.205426e+06 1.205429e+06 3.779
3 regular 8 11 711 46 3 0.241 slower 1 1.205430e+06 1.205434e+06 3.946
3 regular 8 12 712 73 3 0.549 faster 1 1.205436e+06 1.205440e+06 3.965
3 regular 8 13 713 73 3 0.544 faster 1 1.205441e+06 1.205445e+06 3.773
3 regular 8 14 714 48 3 0.561 slower 1 1.205447e+06 1.205451e+06 3.948
3 regular 8 15 715 72 3 0.103 faster 1 1.205452e+06 1.205456e+06 3.882
3 regular 8 16 716 71 3 0.145 faster 1 1.205457e+06 1.205461e+06 3.863
3 regular 8 17 717 49 3 0.329 slower 1 1.205462e+06 1.205466e+06 3.760
3 regular 8 18 718 70 3 0.426 faster 1 1.205468e+06 1.205472e+06 4.133
3 regular 8 19 719 70 3 0.576 faster 1 1.205474e+06 1.205478e+06 4.503
3 regular 8 20 720 69 3 0.363 faster 1 1.205480e+06 1.205484e+06 3.876
3 regular 8 21 721 51 3 0.415 slower 1 1.205486e+06 1.205490e+06 4.072
3 regular 8 22 722 68 3 0.327 faster 1 1.205493e+06 1.205497e+06 3.895
3 regular 8 23 723 68 3 0.291 faster 1 1.205499e+06 1.205503e+06 4.252
3 regular 8 24 724 53 3 0.174 faster 0 1.205505e+06 1.205509e+06 4.197
3 regular 8 25 725 68 3 0.221 faster 1 1.205510e+06 1.205514e+06 3.723
3 regular 8 26 726 68 3 0.410 faster 1 1.205515e+06 1.205519e+06 3.665
3 regular 8 27 727 67 3 0.596 faster 1 1.205521e+06 1.205525e+06 4.188
3 regular 8 28 728 53 3 0.447 faster 0 1.205526e+06 1.205531e+06 4.323
3 regular 8 29 729 68 3 0.568 faster 1 1.205533e+06 1.205536e+06 3.673
3 regular 8 30 730 67 3 0.475 faster 1 1.205538e+06 1.205542e+06 3.766
3 regular 8 31 731 53 3 0.121 faster 0 1.205544e+06 1.205548e+06 4.142
3 regular 8 32 732 52 3 0.570 slower 1 1.205551e+06 1.205555e+06 4.467
3 regular 8 33 733 53 3 0.551 faster 0 1.205557e+06 1.205561e+06 4.023
3 regular 8 34 734 68 3 0.372 faster 1 1.205563e+06 1.205567e+06 3.754
3 regular 8 35 735 68 3 0.522 faster 1 1.205569e+06 1.205573e+06 3.707
3 regular 8 36 736 53 3 0.386 faster 0 1.205575e+06 1.205579e+06 4.218
3 regular 8 37 737 68 3 0.374 faster 1 1.205580e+06 1.205585e+06 4.461
3 regular 8 38 738 52 3 0.193 slower 1 1.205586e+06 1.205591e+06 4.519
3 regular 8 39 739 53 3 0.241 faster 0 1.205593e+06 1.205597e+06 3.976
3 regular 8 40 740 52 3 0.367 faster 0 1.205599e+06 1.205603e+06 4.577
3 regular 8 41 741 69 3 0.583 faster 1 1.205606e+06 1.205610e+06 3.670
3 regular 8 42 742 69 3 0.181 faster 1 1.205612e+06 1.205616e+06 3.897
3 regular 8 43 743 52 3 0.349 faster 0 1.205619e+06 1.205623e+06 3.959
3 regular 8 44 744 51 3 0.211 slower 1 1.205626e+06 1.205630e+06 4.224
3 regular 8 45 745 69 3 0.294 slower 0 1.205632e+06 1.205637e+06 4.281
3 regular 8 46 746 50 3 0.337 faster 0 1.205639e+06 1.205643e+06 3.841
3 regular 8 47 747 71 3 0.567 faster 1 1.205645e+06 1.205649e+06 3.728
3 regular 8 48 748 50 3 0.270 slower 1 1.205651e+06 1.205655e+06 4.911
3 regular 8 49 749 50 3 0.188 slower 1 1.205657e+06 1.205661e+06 4.355
3 regular 8 50 750 69 3 0.280 faster 1 1.205664e+06 1.205667e+06 3.900
3 regular 8 51 751 51 3 0.514 slower 1 1.205669e+06 1.205673e+06 4.041
3 regular 8 52 752 52 3 0.159 faster 0 1.205675e+06 1.205679e+06 4.308
3 regular 8 53 753 51 3 0.196 none 2 1.205680e+06 1.205686e+06 6.000
3 regular 8 54 754 51 3 0.291 slower 1 1.205690e+06 1.205693e+06 3.864
3 regular 8 55 755 51 3 0.150 slower 1 1.205695e+06 1.205699e+06 3.671
3 regular 8 56 756 52 3 0.160 none 2 1.205704e+06 1.205710e+06 6.000
3 regular 8 57 757 52 3 0.275 faster 0 1.205715e+06 1.205719e+06 4.326
3 regular 8 58 758 69 3 0.374 slower 0 1.205728e+06 1.205732e+06 4.488
3 regular 8 59 759 50 3 0.159 slower 1 1.205733e+06 1.205737e+06 3.638
3 regular 8 60 760 70 3 0.338 slower 0 1.205740e+06 1.205744e+06 4.112
3 regular 8 61 761 71 3 0.187 faster 1 1.205749e+06 1.205753e+06 4.191
3 regular 8 62 762 50 3 0.241 faster 0 1.205755e+06 1.205760e+06 4.275
3 regular 8 63 763 71 3 0.394 faster 1 1.205762e+06 1.205766e+06 4.137
3 regular 8 64 764 49 3 0.261 slower 1 1.205775e+06 1.205779e+06 4.053
3 regular 8 65 765 70 3 0.588 none 2 1.205782e+06 1.205788e+06 6.000
3 regular 8 66 766 70 3 0.273 faster 1 1.205796e+06 1.205801e+06 4.048
3 regular 8 67 767 50 3 0.498 slower 1 1.205806e+06 1.205810e+06 3.992
3 regular 8 68 768 69 3 0.360 faster 1 1.205814e+06 1.205819e+06 4.610
3 regular 8 69 769 69 3 0.158 faster 1 1.205821e+06 1.205825e+06 3.903
3 regular 8 70 770 52 3 0.499 faster 0 1.205828e+06 1.205833e+06 4.886
3 regular 8 71 771 69 3 0.154 slower 0 1.205834e+06 1.205837e+06 3.243
3 regular 8 72 772 50 3 0.516 slower 1 1.205839e+06 1.205844e+06 4.852
3 regular 8 73 773 70 3 0.282 slower 0 1.205845e+06 1.205849e+06 3.907
3 regular 8 74 774 49 3 0.526 faster 0 1.205851e+06 1.205855e+06 4.231
3 regular 8 75 775 72 3 0.598 faster 1 1.205857e+06 1.205861e+06 4.087
3 regular 8 76 776 49 3 0.470 slower 1 1.205864e+06 1.205869e+06 4.113
3 regular 8 77 777 49 3 0.376 none 2 1.205871e+06 1.205877e+06 6.000
3 regular 8 78 778 49 3 0.198 faster 0 1.205883e+06 1.205887e+06 4.242
3 regular 8 79 779 48 3 0.216 faster 0 1.205889e+06 1.205893e+06 4.207
3 regular 8 80 780 73 3 0.301 faster 1 1.205894e+06 1.205899e+06 4.142
3 regular 8 81 781 48 3 0.508 slower 1 1.205902e+06 1.205905e+06 3.759
3 regular 8 82 782 48 3 0.477 slower 1 1.205908e+06 1.205912e+06 3.715
3 regular 8 83 783 49 3 0.575 faster 0 1.205915e+06 1.205919e+06 4.240
3 regular 8 84 784 72 3 0.346 none 2 1.205925e+06 1.205931e+06 5.999
3 regular 8 85 785 48 3 0.133 faster 0 1.205932e+06 1.205936e+06 4.218
3 regular 8 86 786 73 3 0.176 faster 1 1.205938e+06 1.205942e+06 4.538
3 regular 8 87 787 47 3 0.573 faster 0 1.205944e+06 1.205949e+06 4.309
3 regular 8 88 788 74 3 0.229 faster 1 1.205951e+06 1.205955e+06 4.318
3 regular 8 89 789 73 3 0.157 slower 0 1.205960e+06 1.205965e+06 5.348
3 regular 8 90 790 46 3 0.359 faster 0 1.205967e+06 1.205971e+06 4.575
3 regular 8 91 791 45 3 0.296 slower 1 1.205975e+06 1.205978e+06 3.835
3 regular 8 92 792 75 3 0.104 faster 1 1.205980e+06 1.205984e+06 3.949
3 regular 8 93 793 74 3 0.140 faster 1 1.205986e+06 1.205990e+06 3.901
3 regular 8 94 794 46 3 0.258 none 2 1.205994e+06 1.206000e+06 6.000
3 regular 8 95 795 74 3 0.193 faster 1 1.206011e+06 1.206015e+06 3.922
3 regular 8 96 796 47 3 0.305 slower 1 1.206018e+06 1.206022e+06 4.033
3 regular 8 97 797 47 3 0.582 slower 1 1.206024e+06 1.206028e+06 4.334
3 regular 8 98 798 48 3 0.150 slower 1 1.206034e+06 1.206038e+06 3.848
3 regular 8 99 799 72 3 0.588 faster 1 1.206040e+06 1.206044e+06 3.973
3 regular 8 100 800 71 3 0.538 faster 1 1.206047e+06 1.206051e+06 3.927
3 irregular 9 1 801 49 1 0.310 slower 1 1.206333e+06 1.206335e+06 2.802
3 irregular 9 2 802 50 1.500000e+00 0.329 faster 0 1.206336e+06 1.206339e+06 2.221
3 irregular 9 3 803 49 2.500000e+00 0.267 faster 0 1.206340e+06 1.206343e+06 3.326
3 irregular 9 4 804 72 1 0.119 faster 1 1.206344e+06 1.206346e+06 2.142
3 irregular 9 5 805 72 1.500000e+00 0.264 faster 1 1.206348e+06 1.206350e+06 1.909
3 irregular 9 6 806 71 2 0.213 faster 1 1.206351e+06 1.206353e+06 2.392
3 irregular 9 7 807 71 3 0.455 faster 1 1.206355e+06 1.206358e+06 3.576
3 irregular 9 8 808 50 1 0.309 faster 0 1.206360e+06 1.206362e+06 1.698
3 irregular 9 9 809 71 3 0.265 faster 1 1.206363e+06 1.206367e+06 3.567
3 irregular 9 10 810 71 1 0.544 faster 1 1.206368e+06 1.206370e+06 1.528
3 irregular 9 11 811 50 1 0.133 faster 0 1.206371e+06 1.206373e+06 1.598
3 irregular 9 12 812 71 2 0.240 faster 1 1.206374e+06 1.206377e+06 2.758
3 irregular 9 13 813 49 1.500000e+00 0.397 faster 0 1.206378e+06 1.206381e+06 2.661
3 irregular 9 14 814 48 2 0.354 slower 1 1.206383e+06 1.206386e+06 2.989
3 irregular 9 15 815 49 3 0.182 slower 1 1.206387e+06 1.206391e+06 3.637
3 irregular 9 16 816 49 1 0.240 slower 1 1.206393e+06 1.206394e+06 1.584
3 irregular 9 17 817 70 1.500000e+00 0.458 faster 1 1.206396e+06 1.206399e+06 2.154
3 irregular 9 18 818 70 1 0.217 faster 1 1.206400e+06 1.206402e+06 1.854
3 irregular 9 19 819 69 1.500000e+00 0.287 faster 1 1.206404e+06 1.206406e+06 2.134
3 irregular 9 20 820 51 2 0.513 slower 1 1.206407e+06 1.206410e+06 2.708
3 irregular 9 21 821 52 1 0.398 slower 1 1.206412e+06 1.206413e+06 1.702
3 irregular 9 22 822 52 1 0.376 slower 1 1.206415e+06 1.206417e+06 1.890
3 irregular 9 23 823 67 3 0.469 faster 1 1.206419e+06 1.206423e+06 3.799
3 irregular 9 24 824 53 1.500000e+00 0.230 faster 0 1.206424e+06 1.206426e+06 2.083
3 irregular 9 25 825 68 1.500000e+00 0.451 faster 1 1.206428e+06 1.206430e+06 2.205
3 irregular 9 26 826 67 2 0.358 faster 1 1.206432e+06 1.206435e+06 2.599
3 irregular 9 27 827 67 1.500000e+00 0.443 slower 0 1.206437e+06 1.206439e+06 2.409
3 irregular 9 28 828 68 3 0.439 faster 1 1.206441e+06 1.206445e+06 3.649
3 irregular 9 29 829 53 2.500000e+00 0.486 faster 0 1.206447e+06 1.206450e+06 3.260
3 irregular 9 30 830 52 2.500000e+00 0.543 faster 0 1.206452e+06 1.206455e+06 3.150
3 irregular 9 31 831 69 2 0.307 faster 1 1.206457e+06 1.206460e+06 2.884
3 irregular 9 32 832 69 2.500000e+00 0.314 faster 1 1.206462e+06 1.206465e+06 3.582
3 irregular 9 33 833 52 1.500000e+00 0.522 faster 0 1.206467e+06 1.206470e+06 2.611
3 irregular 9 34 834 51 2.500000e+00 0.585 faster 0 1.206471e+06 1.206475e+06 3.516
3 irregular 9 35 835 70 3 0.478 slower 0 1.206477e+06 1.206481e+06 4.051
3 irregular 9 36 836 71 2 0.589 faster 1 1.206483e+06 1.206486e+06 2.889
3 irregular 9 37 837 71 2.500000e+00 0.339 faster 1 1.206488e+06 1.206491e+06 3.195
3 irregular 9 38 838 70 2 0.240 faster 1 1.206493e+06 1.206496e+06 2.692
3 irregular 9 39 839 50 2 0.268 faster 0 1.206498e+06 1.206500e+06 2.650
3 irregular 9 40 840 49 3 0.538 slower 1 1.206502e+06 1.206506e+06 3.792
3 irregular 9 41 841 70 2.500000e+00 0.590 faster 1 1.206508e+06 1.206512e+06 3.643
3 irregular 9 42 842 50 2 0.310 slower 1 1.206514e+06 1.206516e+06 2.861
3 irregular 9 43 843 51 1.500000e+00 0.141 faster 0 1.206518e+06 1.206521e+06 2.335
3 irregular 9 44 844 70 3 0.549 faster 1 1.206522e+06 1.206526e+06 3.625
3 irregular 9 45 845 50 3 0.147 faster 0 1.206528e+06 1.206531e+06 3.688
3 irregular 9 46 846 49 2 0.445 faster 0 1.206533e+06 1.206536e+06 2.614
3 irregular 9 47 847 48 2.500000e+00 0.399 slower 1 1.206537e+06 1.206540e+06 3.204
3 irregular 9 48 848 71 2.500000e+00 0.267 faster 1 1.206542e+06 1.206545e+06 3.265
3 irregular 9 49 849 49 3 0.323 faster 0 1.206547e+06 1.206550e+06 3.623
3 irregular 9 50 850 72 1.500000e+00 0.246 faster 1 1.206552e+06 1.206554e+06 2.111
3 irregular 9 51 851 49 3 0.555 faster 0 1.206555e+06 1.206559e+06 3.509
3 irregular 9 52 852 48 3 0.471 faster 0 1.206560e+06 1.206564e+06 3.619
3 irregular 9 53 853 47 2.500000e+00 0.333 faster 0 1.206566e+06 1.206569e+06 3.462
3 irregular 9 54 854 46 3 0.324 slower 1 1.206572e+06 1.206576e+06 4.104
3 irregular 9 55 855 46 1.500000e+00 0.303 slower 1 1.206578e+06 1.206580e+06 2.078
3 irregular 9 56 856 47 2.500000e+00 0.213 faster 0 1.206582e+06 1.206585e+06 3.405
3 irregular 9 57 857 74 1 0.156 faster 1 1.206588e+06 1.206589e+06 1.828
3 irregular 9 58 858 74 1.500000e+00 0.105 faster 1 1.206591e+06 1.206593e+06 1.994
3 irregular 9 59 859 73 1 0.109 faster 1 1.206594e+06 1.206596e+06 1.702
3 irregular 9 60 860 73 1 0.143 faster 1 1.206597e+06 1.206599e+06 1.625
3 irregular 9 61 861 72 3 0.256 faster 1 1.206600e+06 1.206604e+06 3.586
3 irregular 9 62 862 72 2.500000e+00 0.172 faster 1 1.206605e+06 1.206609e+06 3.754
3 irregular 9 63 863 71 1.500000e+00 0.530 faster 1 1.206611e+06 1.206613e+06 2.222
3 irregular 9 64 864 49 2.500000e+00 0.254 slower 1 1.206615e+06 1.206618e+06 3.267
3 irregular 9 65 865 70 1 0.107 faster 1 1.206619e+06 1.206621e+06 1.833
3 irregular 9 66 866 50 1 0.513 faster 0 1.206623e+06 1.206625e+06 1.848
3 irregular 9 67 867 49 2.500000e+00 0.521 faster 0 1.206626e+06 1.206630e+06 3.918
3 irregular 9 68 868 72 2.500000e+00 0.140 faster 1 1.206632e+06 1.206636e+06 4.401
3 irregular 9 69 869 71 2 0.130 faster 1 1.206637e+06 1.206640e+06 2.654
3 irregular 9 70 870 49 1 0.513 faster 0 1.206642e+06 1.206644e+06 2.589
3 irregular 9 71 871 48 2 0.435 faster 0 1.206646e+06 1.206649e+06 2.798
3 irregular 9 72 872 47 2 0.106 faster 0 1.206650e+06 1.206653e+06 3.251
3 irregular 9 73 873 46 2 0.596 faster 0 1.206655e+06 1.206658e+06 2.653
3 irregular 9 74 874 45 1.500000e+00 0.261 faster 0 1.206659e+06 1.206662e+06 2.806
3 irregular 9 75 875 44 3 0.135 slower 1 1.206663e+06 1.206667e+06 3.811
3 irregular 9 76 876 75 2 0.540 slower 0 1.206669e+06 1.206672e+06 3.079
3 irregular 9 77 877 44 1.500000e+00 0.476 faster 0 1.206674e+06 1.206676e+06 2.584
3 irregular 9 78 878 77 3 0.301 faster 1 1.206678e+06 1.206682e+06 3.664
3 irregular 9 79 879 77 2.500000e+00 0.242 faster 1 1.206683e+06 1.206686e+06 3.148
3 irregular 9 80 880 76 2.500000e+00 0.331 faster 1 1.206689e+06 1.206692e+06 3.095
3 irregular 9 81 881 44 3 0.374 faster 0 1.206694e+06 1.206698e+06 4.241
3 irregular 9 82 882 77 1.500000e+00 0.154 slower 0 1.206701e+06 1.206704e+06 2.433
3 irregular 9 83 883 42 1.500000e+00 0.497 slower 1 1.206706e+06 1.206709e+06 2.854
3 irregular 9 84 884 43 1 0.204 faster 0 1.206710e+06 1.206713e+06 2.124
3 irregular 9 85 885 42 2.500000e+00 0.373 faster 0 1.206714e+06 1.206718e+06 3.486
3 irregular 9 86 886 41 2 0.278 faster 0 1.206720e+06 1.206723e+06 2.973
3 irregular 9 87 887 80 1 0.406 faster 1 1.206725e+06 1.206727e+06 1.768
3 irregular 9 88 888 40 1.500000e+00 0.395 faster 0 1.206729e+06 1.206731e+06 2.244
3 irregular 9 89 889 81 1.500000e+00 0.164 faster 1 1.206732e+06 1.206734e+06 2.188
3 irregular 9 90 890 80 2 0.236 faster 1 1.206736e+06 1.206739e+06 2.748
3 irregular 9 91 891 80 2 0.213 faster 1 1.206741e+06 1.206743e+06 2.602
3 irregular 9 92 892 41 1 0.152 faster 0 1.206745e+06 1.206747e+06 1.741
3 irregular 9 93 893 40 3 0.586 faster 0 1.206749e+06 1.206752e+06 3.859
3 irregular 9 94 894 81 2.500000e+00 0.365 faster 1 1.206754e+06 1.206757e+06 3.134
3 irregular 9 95 895 39 2 0.157 slower 1 1.206759e+06 1.206762e+06 3.179
3 irregular 9 96 896 80 3 0.568 faster 1 1.206764e+06 1.206768e+06 3.735
3 irregular 9 97 897 80 3 0.320 faster 1 1.206769e+06 1.206773e+06 4.454
3 irregular 9 98 898 79 1 0.176 faster 1 1.206774e+06 1.206776e+06 1.756
3 irregular 9 99 899 79 1 0.543 faster 1 1.206778e+06 1.206780e+06 2.444
3 irregular 9 100 900 78 2.500000e+00 0.341 faster 1 1.206782e+06 1.206785e+06 3.140
3 regular 10 1 901 42 2 0.141 faster 0 1.206804e+06 1.206807e+06 3.472
3 regular 10 2 902 41 2 0.587 faster 0 1.206809e+06 1.206812e+06 3.032
3 regular 10 3 903 80 2 0.521 faster 1 1.206814e+06 1.206817e+06 2.715
3 regular 10 4 904 41 2 0.206 faster 0 1.206818e+06 1.206821e+06 2.601
3 regular 10 5 905 80 2 0.289 slower 0 1.206822e+06 1.206825e+06 2.804
3 regular 10 6 906 81 2 0.466 faster 1 1.206826e+06 1.206829e+06 2.586
3 regular 10 7 907 39 2 0.123 slower 1 1.206830e+06 1.206833e+06 3.149
3 regular 10 8 908 40 2 0.400 faster 0 1.206835e+06 1.206837e+06 2.785
3 regular 10 9 909 39 2 0.503 faster 0 1.206839e+06 1.206842e+06 2.730
3 regular 10 10 910 82 2 0.192 faster 1 1.206845e+06 1.206847e+06 2.647
3 regular 10 11 911 82 2 0.267 faster 1 1.206849e+06 1.206852e+06 2.728
3 regular 10 12 912 39 2 0.579 faster 0 1.206854e+06 1.206856e+06 2.619
3 regular 10 13 913 82 2 0.306 faster 1 1.206858e+06 1.206861e+06 2.696
3 regular 10 14 914 82 2 0.565 faster 1 1.206863e+06 1.206866e+06 2.521
3 regular 10 15 915 81 2 0.375 faster 1 1.206868e+06 1.206870e+06 2.572
3 regular 10 16 916 81 2 0.210 faster 1 1.206872e+06 1.206875e+06 2.544
3 regular 10 17 917 40 2 0.182 slower 1 1.206876e+06 1.206879e+06 2.801
3 regular 10 18 918 80 2 0.182 faster 1 1.206880e+06 1.206883e+06 2.801
3 regular 10 19 919 41 2 0.576 slower 1 1.206888e+06 1.206892e+06 3.247
3 regular 10 20 920 41 2 0.426 slower 1 1.206893e+06 1.206896e+06 2.815
3 regular 10 21 921 42 2 0.410 slower 1 1.206898e+06 1.206901e+06 3.626
3 regular 10 22 922 78 2 0.443 faster 1 1.206903e+06 1.206906e+06 2.961
3 regular 10 23 923 77 2 0.124 faster 1 1.206908e+06 1.206911e+06 2.621
3 regular 10 24 924 43 2 0.246 faster 0 1.206912e+06 1.206915e+06 3.087
3 regular 10 25 925 78 2 0.254 faster 1 1.206916e+06 1.206919e+06 2.714
3 regular 10 26 926 77 2 0.218 faster 1 1.206920e+06 1.206923e+06 2.808
3 regular 10 27 927 77 2 0.169 faster 1 1.206924e+06 1.206927e+06 2.690
3 regular 10 28 928 44 2 0.298 slower 1 1.206928e+06 1.206931e+06 2.967
3 regular 10 29 929 44 2 0.451 faster 0 1.206933e+06 1.206936e+06 2.689
3 regular 10 30 930 77 2 0.332 faster 1 1.206937e+06 1.206940e+06 2.787
3 regular 10 31 931 76 2 0.528 faster 1 1.206942e+06 1.206944e+06 2.808
3 regular 10 32 932 76 2 0.202 faster 1 1.206945e+06 1.206948e+06 2.641
3 regular 10 33 933 45 2 0.500 slower 1 1.206950e+06 1.206953e+06 2.943
3 regular 10 34 934 75 2 0.118 faster 1 1.206954e+06 1.206956e+06 2.776
3 regular 10 35 935 46 2 0.481 slower 1 1.206958e+06 1.206961e+06 2.975
3 regular 10 36 936 74 2 0.233 faster 1 1.206963e+06 1.206966e+06 3.243
3 regular 10 37 937 47 2 0.156 faster 0 1.206967e+06 1.206970e+06 2.922
3 regular 10 38 938 74 2 0.377 faster 1 1.206973e+06 1.206976e+06 2.775
3 regular 10 39 939 46 2 0.534 slower 1 1.206978e+06 1.206981e+06 3.391
3 regular 10 40 940 47 2 0.384 slower 1 1.206984e+06 1.206987e+06 3.429
3 regular 10 41 941 73 2 0.402 faster 1 1.206990e+06 1.206993e+06 2.808
3 regular 10 42 942 48 2 0.109 faster 0 1.206996e+06 1.206998e+06 2.646
3 regular 10 43 943 47 2 0.135 slower 1 1.207005e+06 1.207008e+06 2.757
3 regular 10 44 944 73 2 0.178 faster 1 1.207010e+06 1.207013e+06 2.685
3 regular 10 45 945 48 2 0.226 faster 0 1.207014e+06 1.207017e+06 3.111
3 regular 10 46 946 47 2 0.395 faster 0 1.207020e+06 1.207023e+06 3.191
3 regular 10 47 947 74 2 0.563 faster 1 1.207025e+06 1.207027e+06 2.662
3 regular 10 48 948 74 2 0.592 faster 1 1.207029e+06 1.207032e+06 2.673
3 regular 10 49 949 47 2 0.558 slower 1 1.207034e+06 1.207038e+06 3.946
3 regular 10 50 950 73 2 0.312 faster 1 1.207040e+06 1.207043e+06 3.520
3 regular 10 51 951 48 2 0.324 slower 1 1.207044e+06 1.207047e+06 3.026
3 regular 10 52 952 72 2 0.532 faster 1 1.207050e+06 1.207053e+06 2.839
3 regular 10 53 953 71 2 0.191 faster 1 1.207054e+06 1.207057e+06 2.778
3 regular 10 54 954 49 2 0.376 slower 1 1.207058e+06 1.207061e+06 3.231
3 regular 10 55 955 50 2 0.363 slower 1 1.207063e+06 1.207066e+06 2.936
3 regular 10 56 956 50 2 0.543 slower 1 1.207069e+06 1.207071e+06 2.755
3 regular 10 57 957 69 2 0.539 faster 1 1.207073e+06 1.207076e+06 2.860
3 regular 10 58 958 69 2 0.225 faster 1 1.207078e+06 1.207080e+06 2.651
3 regular 10 59 959 52 2 0.130 slower 1 1.207082e+06 1.207085e+06 2.867
3 regular 10 60 960 52 2 0.316 slower 1 1.207086e+06 1.207090e+06 3.230
3 regular 10 61 961 67 2 0.322 faster 1 1.207091e+06 1.207094e+06 2.688
3 regular 10 62 962 67 2 0.253 faster 1 1.207096e+06 1.207098e+06 2.871
3 regular 10 63 963 54 2 0.415 none 2 1.207101e+06 1.207106e+06 4.999
3 regular 10 64 964 66 2 0.232 faster 1 1.207107e+06 1.207110e+06 2.865
3 regular 10 65 965 54 2 0.507 faster 0 1.207111e+06 1.207114e+06 2.618
3 regular 10 66 966 53 2 0.294 slower 1 1.207116e+06 1.207119e+06 2.960
3 regular 10 67 967 54 2 0.320 faster 0 1.207121e+06 1.207124e+06 3.301
3 regular 10 68 968 53 2 0.305 faster 0 1.207126e+06 1.207130e+06 3.494
3 regular 10 69 969 52 2 0.470 slower 1 1.207135e+06 1.207138e+06 3.439
3 regular 10 70 970 68 2 0.280 faster 1 1.207141e+06 1.207143e+06 2.724
3 regular 10 71 971 67 2 0.260 faster 1 1.207145e+06 1.207149e+06 3.847
3 regular 10 72 972 53 2 0.434 slower 1 1.207151e+06 1.207154e+06 2.797
3 regular 10 73 973 54 2 0.570 slower 1 1.207156e+06 1.207160e+06 3.953
3 regular 10 74 974 66 2 0.476 faster 1 1.207161e+06 1.207163e+06 2.532
3 regular 10 75 975 55 2 0.321 faster 0 1.207165e+06 1.207168e+06 2.511
3 regular 10 76 976 54 2 0.320 faster 0 1.207169e+06 1.207172e+06 2.658
3 regular 10 77 977 53 2 0.522 faster 0 1.207174e+06 1.207176e+06 2.522
3 regular 10 78 978 52 2 0.116 faster 0 1.207178e+06 1.207180e+06 2.790
3 regular 10 79 979 69 2 0.492 faster 1 1.207182e+06 1.207185e+06 3.064
3 regular 10 80 980 51 2 0.385 faster 0 1.207186e+06 1.207190e+06 3.065
3 regular 10 81 981 50 2 0.112 faster 0 1.207192e+06 1.207195e+06 2.737
3 regular 10 82 982 71 2 0.591 faster 1 1.207198e+06 1.207201e+06 2.715
3 regular 10 83 983 50 2 0.443 slower 1 1.207203e+06 1.207206e+06 2.825
3 regular 10 84 984 70 2 0.211 faster 1 1.207207e+06 1.207210e+06 3.031
3 regular 10 85 985 69 2 0.375 faster 1 1.207213e+06 1.207216e+06 2.972
3 regular 10 86 986 69 2 0.580 faster 1 1.207217e+06 1.207219e+06 2.673
3 regular 10 87 987 68 2 0.237 faster 1 1.207221e+06 1.207224e+06 3.281
3 regular 10 88 988 52 2 0.478 slower 1 1.207227e+06 1.207229e+06 2.722
3 regular 10 89 989 67 2 0.562 slower 0 1.207232e+06 1.207235e+06 2.937
3 regular 10 90 990 52 2 0.512 slower 1 1.207237e+06 1.207240e+06 2.704
3 regular 10 91 991 68 2 0.120 faster 1 1.207242e+06 1.207245e+06 2.854
3 regular 10 92 992 67 2 0.134 faster 1 1.207246e+06 1.207249e+06 2.568
3 regular 10 93 993 53 2 0.145 slower 1 1.207250e+06 1.207253e+06 2.786
3 regular 10 94 994 66 2 0.532 faster 1 1.207255e+06 1.207258e+06 3.160
3 regular 10 95 995 66 2 0.582 faster 1 1.207260e+06 1.207263e+06 2.703
3 regular 10 96 996 65 2 0.265 faster 1 1.207264e+06 1.207268e+06 3.225
3 regular 10 97 997 65 2 0.178 faster 1 1.207269e+06 1.207272e+06 2.772
3 regular 10 98 998 64 2 0.406 faster 1 1.207273e+06 1.207276e+06 2.917
3 regular 10 99 999 56 2 0.435 faster 0 1.207278e+06 1.207281e+06 2.857
3 regular 10 100 1000 55 2 0.536 faster 0 1.207282e+06 1.207285e+06 2.682
