subNo condition blockNo trialNo trialID currentFrequency cueTargetInterval randomPreCueInterval response responseAccuracy startTime responseTime RT
7 irregular 1 1 1 67 2 0.325 slower 0 2.066288e+06 2.066291e+06 3.649
7 irregular 1 2 2 51 2 0.331 faster 0 2.066292e+06 2.066296e+06 3.902
7 irregular 1 3 3 71 1 0.460 none 2 2.066297e+06 2.066301e+06 4.000
7 irregular 1 4 4 49 2.500000e+00 0.215 slower 1 2.066305e+06 2.066309e+06 3.223
7 irregular 1 5 5 71 2 0.547 faster 1 2.066310e+06 2.066313e+06 2.927
7 irregular 1 6 6 69 2.500000e+00 0.488 slower 0 2.066314e+06 2.066318e+06 3.440
7 irregular 1 7 7 49 3 0.539 slower 1 2.066319e+06 2.066323e+06 3.725
7 irregular 1 8 8 71 3 0.448 faster 1 2.066324e+06 2.066328e+06 4.190
7 irregular 1 9 9 51 1.500000e+00 0.405 slower 1 2.066329e+06 2.066332e+06 2.660
7 irregular 1 10 10 69 1.500000e+00 0.496 faster 1 2.066333e+06 2.066337e+06 3.263
7 irregular 1 11 11 52 1.500000e+00 0.290 faster 0 2.066338e+06 2.066340e+06 2.356
7 irregular 1 12 12 51 2.500000e+00 0.391 slower 1 2.066341e+06 2.066345e+06 3.489
7 irregular 1 13 13 51 3 0.225 slower 1 2.066346e+06 2.066349e+06 3.786
7 irregular 1 14 14 52 1 0.364 faster 0 2.066350e+06 2.066353e+06 2.736
7 irregular 1 15 15 69 1 0.576 slower 0 2.066354e+06 2.066357e+06 2.202
7 irregular 1 16 16 50 2.500000e+00 0.227 slower 1 2.066357e+06 2.066361e+06 3.334
7 irregular 1 17 17 70 1.500000e+00 0.572 faster 1 2.066362e+06 2.066365e+06 2.543
7 irregular 1 18 18 69 3 0.203 slower 0 2.066366e+06 2.066369e+06 3.739
7 irregular 1 19 19 50 1 0.206 slower 1 2.066370e+06 2.066372e+06 2.118
7 irregular 1 20 20 50 1.500000e+00 0.406 faster 0 2.066373e+06 2.066377e+06 3.359
7 irregular 1 21 21 71 1 0.224 slower 0 2.066378e+06 2.066381e+06 3.333
7 irregular 1 22 22 48 1 0.509 slower 1 2.066383e+06 2.066384e+06 1.843
7 irregular 1 23 23 71 2.500000e+00 0.399 faster 1 2.066385e+06 2.066389e+06 3.409
7 irregular 1 24 24 49 2 0.529 faster 0 2.066390e+06 2.066393e+06 3.067
7 irregular 1 25 25 48 2.500000e+00 0.326 slower 1 2.066394e+06 2.066397e+06 3.234
7 irregular 1 26 26 71 1.500000e+00 0.349 slower 0 2.066398e+06 2.066401e+06 2.297
7 irregular 1 27 27 72 2.500000e+00 0.566 faster 1 2.066402e+06 2.066405e+06 3.142
7 irregular 1 28 28 48 1 0.106 slower 1 2.066407e+06 2.066409e+06 2.005
7 irregular 1 29 29 71 1.500000e+00 0.218 faster 1 2.066410e+06 2.066413e+06 2.928
7 irregular 1 30 30 49 2.500000e+00 0.441 faster 0 2.066414e+06 2.066417e+06 3.177
7 irregular 1 31 31 72 3 0.169 faster 1 2.066418e+06 2.066422e+06 4.356
7 irregular 1 32 32 71 2 0.146 slower 0 2.066423e+06 2.066426e+06 2.838
7 irregular 1 33 33 48 1 0.599 slower 1 2.066427e+06 2.066429e+06 1.686
7 irregular 1 34 34 72 3 0.521 slower 0 2.066430e+06 2.066435e+06 4.354
7 irregular 1 35 35 47 2 0.522 slower 1 2.066436e+06 2.066439e+06 3.171
7 irregular 1 36 36 72 2.500000e+00 0.334 faster 1 2.066440e+06 2.066444e+06 3.204
7 irregular 1 37 37 72 2.500000e+00 0.296 faster 1 2.066445e+06 2.066448e+06 3.609
7 irregular 1 38 38 71 2.500000e+00 0.462 slower 0 2.066449e+06 2.066453e+06 3.376
7 irregular 1 39 39 48 3 0.544 slower 1 2.066454e+06 2.066458e+06 4.159
7 irregular 1 40 40 72 3 0.160 faster 1 2.066459e+06 2.066463e+06 3.934
7 irregular 1 41 41 49 1 0.291 slower 1 2.066464e+06 2.066466e+06 2.055
7 irregular 1 42 42 49 1.500000e+00 0.158 slower 1 2.066467e+06 2.066470e+06 2.425
7 irregular 1 43 43 70 2.500000e+00 0.580 slower 0 2.066471e+06 2.066475e+06 3.669
7 irregular 1 44 44 71 1.500000e+00 0.150 faster 1 2.066476e+06 2.066479e+06 2.630
7 irregular 1 45 45 49 3 0.514 slower 1 2.066480e+06 2.066484e+06 3.778
7 irregular 1 46 46 70 1 0.426 faster 1 2.066485e+06 2.066487e+06 2.635
7 irregular 1 47 47 70 2.500000e+00 0.318 slower 0 2.066488e+06 2.066492e+06 3.974
7 irregular 1 48 48 49 2 0.434 slower 1 2.066494e+06 2.066497e+06 3.059
7 irregular 1 49 49 70 1.500000e+00 0.297 faster 1 2.066501e+06 2.066504e+06 2.471
7 irregular 1 50 50 50 2.500000e+00 0.270 slower 1 2.066505e+06 2.066509e+06 4.100
7 irregular 1 51 51 51 1.500000e+00 0.480 faster 0 2.066510e+06 2.066512e+06 2.125
7 irregular 1 52 52 70 2 0.106 faster 1 2.066513e+06 2.066516e+06 2.568
7 irregular 1 53 53 70 1 0.536 faster 1 2.066517e+06 2.066520e+06 2.288
7 irregular 1 54 54 69 2 0.486 slower 0 2.066521e+06 2.066524e+06 2.750
7 irregular 1 55 55 70 1 0.325 slower 0 2.066525e+06 2.066527e+06 1.828
7 irregular 1 56 56 49 2.500000e+00 0.364 slower 1 2.066528e+06 2.066531e+06 3.341
7 irregular 1 57 57 49 3 0.245 faster 0 2.066532e+06 2.066536e+06 3.858
7 irregular 1 58 58 72 2 0.288 faster 1 2.066537e+06 2.066540e+06 2.812
7 irregular 1 59 59 71 1 0.456 faster 1 2.066542e+06 2.066544e+06 1.901
7 irregular 1 60 60 49 2 0.345 slower 1 2.066545e+06 2.066548e+06 2.778
7 irregular 1 61 61 50 1 0.341 faster 0 2.066555e+06 2.066558e+06 3.154
7 irregular 1 62 62 71 3 0.307 faster 1 2.066560e+06 2.066565e+06 5.026
7 irregular 1 63 63 49 1 0.243 slower 1 2.066566e+06 2.066568e+06 1.871
7 irregular 1 64 64 70 3 0.566 faster 1 2.066569e+06 2.066573e+06 3.941
7 irregular 1 65 65 50 1.500000e+00 0.223 slower 1 2.066574e+06 2.066576e+06 2.102
7 irregular 1 66 66 51 3 0.171 faster 0 2.066577e+06 2.066583e+06 5.483
7 irregular 1 67 67 50 1.500000e+00 0.559 slower 1 2.066584e+06 2.066587e+06 2.217
7 irregular 1 68 68 50 3 0.295 slower 1 2.066588e+06 2.066591e+06 3.775
7 irregular 1 69 69 69 1 0.305 none 2 2.066592e+06 2.066596e+06 3.999
7 irregular 1 70 70 69 3 0.582 slower 0 2.066598e+06 2.066602e+06 4.368
7 irregular 1 71 71 70 2 0.503 slower 0 2.066603e+06 2.066606e+06 2.739
7 irregular 1 72 72 71 3 0.323 faster 1 2.066608e+06 2.066612e+06 3.584
7 irregular 1 73 73 71 2.500000e+00 0.483 faster 1 2.066613e+06 2.066616e+06 3.160
7 irregular 1 74 74 50 1.500000e+00 0.292 slower 1 2.066618e+06 2.066620e+06 2.143
7 irregular 1 75 75 50 2 0.580 slower 1 2.066622e+06 2.066626e+06 3.870
7 irregular 1 76 76 51 3 0.438 slower 1 2.066627e+06 2.066631e+06 4.020
7 irregular 1 77 77 69 2 0.594 faster 1 2.066632e+06 2.066635e+06 3.279
7 irregular 1 78 78 52 1 0.111 faster 0 2.066637e+06 2.066639e+06 1.994
7 irregular 1 79 79 69 1 0.197 faster 1 2.066640e+06 2.066642e+06 2.397
7 irregular 1 80 80 69 2 0.316 faster 1 2.066644e+06 2.066647e+06 2.998
7 irregular 1 81 81 52 2 0.504 slower 1 2.066648e+06 2.066651e+06 2.597
7 irregular 1 82 82 68 3 0.150 faster 1 2.066652e+06 2.066656e+06 3.678
7 irregular 1 83 83 67 1.500000e+00 0.435 slower 0 2.066659e+06 2.066661e+06 2.304
7 irregular 1 84 84 52 2.500000e+00 0.558 slower 1 2.066662e+06 2.066666e+06 3.462
7 irregular 1 85 85 68 1.500000e+00 0.272 faster 1 2.066667e+06 2.066670e+06 2.563
7 irregular 1 86 86 53 2 0.586 faster 0 2.066671e+06 2.066674e+06 2.702
7 irregular 1 87 87 52 2 0.410 faster 0 2.066675e+06 2.066677e+06 2.869
7 irregular 1 88 88 69 1 0.384 faster 1 2.066679e+06 2.066681e+06 2.098
7 irregular 1 89 89 51 3 0.257 slower 1 2.066682e+06 2.066687e+06 5.367
7 irregular 1 90 90 52 2 0.387 faster 0 2.066688e+06 2.066691e+06 2.787
7 irregular 1 91 91 51 3 0.281 slower 1 2.066693e+06 2.066697e+06 4.312
7 irregular 1 92 92 51 1.500000e+00 0.391 slower 1 2.066699e+06 2.066702e+06 2.878
7 irregular 1 93 93 52 1.500000e+00 0.161 faster 0 2.066703e+06 2.066706e+06 2.491
7 irregular 1 94 94 51 1 0.417 faster 0 2.066707e+06 2.066710e+06 2.715
7 irregular 1 95 95 70 1.500000e+00 0.547 faster 1 2.066711e+06 2.066714e+06 2.406
7 irregular 1 96 96 50 2.500000e+00 0.238 faster 0 2.066715e+06 2.066718e+06 3.368
7 irregular 1 97 97 71 2 0.573 none 2 2.066719e+06 2.066724e+06 5.000
7 irregular 1 98 98 49 2.500000e+00 0.365 faster 0 2.066725e+06 2.066730e+06 4.419
7 irregular 1 99 99 72 2.500000e+00 0.486 faster 1 2.066731e+06 2.066734e+06 3.530
7 irregular 1 100 100 71 1.500000e+00 0.593 slower 0 2.066736e+06 2.066738e+06 2.571
7 regular 2 1 101 72 3 0.190 faster 1 2.066788e+06 2.066792e+06 4.573
7 regular 2 2 102 48 3 0.446 faster 0 2.066794e+06 2.066797e+06 3.660
7 regular 2 3 103 73 3 0.488 faster 1 2.066798e+06 2.066802e+06 3.627
7 regular 2 4 104 72 3 0.366 faster 1 2.066804e+06 2.066807e+06 3.591
7 regular 2 5 105 48 3 0.206 faster 0 2.066809e+06 2.066813e+06 3.607
7 regular 2 6 106 73 3 0.192 faster 1 2.066814e+06 2.066818e+06 3.639
7 regular 2 7 107 72 3 0.483 faster 1 2.066819e+06 2.066823e+06 3.663
7 regular 2 8 108 72 3 0.563 faster 1 2.066824e+06 2.066827e+06 3.585
7 regular 2 9 109 71 3 0.413 faster 1 2.066828e+06 2.066832e+06 3.578
7 regular 2 10 110 49 3 0.525 slower 1 2.066833e+06 2.066837e+06 3.601
7 regular 2 11 111 50 3 0.355 faster 0 2.066838e+06 2.066842e+06 4.063
7 regular 2 12 112 71 3 0.251 faster 1 2.066843e+06 2.066846e+06 3.774
7 regular 2 13 113 71 3 0.229 faster 1 2.066847e+06 2.066851e+06 3.707
7 regular 2 14 114 50 3 0.451 faster 0 2.066852e+06 2.066856e+06 3.657
7 regular 2 15 115 71 3 0.223 none 2 2.066857e+06 2.066863e+06 6.000
7 regular 2 16 116 49 3 0.327 faster 0 2.066864e+06 2.066868e+06 3.636
7 regular 2 17 117 48 3 0.236 faster 0 2.066868e+06 2.066872e+06 3.616
7 regular 2 18 118 47 3 0.537 slower 1 2.066873e+06 2.066878e+06 4.321
7 regular 2 19 119 73 3 0.565 faster 1 2.066879e+06 2.066882e+06 3.772
7 regular 2 20 120 48 3 0.190 slower 1 2.066883e+06 2.066888e+06 4.316
7 regular 2 21 121 72 3 0.531 faster 1 2.066889e+06 2.066893e+06 3.741
7 regular 2 22 122 71 3 0.154 faster 1 2.066894e+06 2.066898e+06 3.637
7 regular 2 23 123 49 3 0.384 faster 0 2.066899e+06 2.066903e+06 3.576
7 regular 2 24 124 48 3 0.585 faster 0 2.066904e+06 2.066907e+06 3.540
7 regular 2 25 125 73 3 0.347 faster 1 2.066908e+06 2.066912e+06 3.636
7 regular 2 26 126 72 3 0.471 faster 1 2.066913e+06 2.066917e+06 3.941
7 regular 2 27 127 48 3 0.205 faster 0 2.066918e+06 2.066922e+06 3.667
7 regular 2 28 128 73 3 0.159 faster 1 2.066923e+06 2.066926e+06 3.631
7 regular 2 29 129 72 3 0.586 faster 1 2.066928e+06 2.066931e+06 3.651
7 regular 2 30 130 48 3 0.471 slower 1 2.066933e+06 2.066936e+06 3.886
7 regular 2 31 131 49 3 0.287 faster 0 2.066937e+06 2.066941e+06 3.694
7 regular 2 32 132 72 3 0.515 faster 1 2.066943e+06 2.066946e+06 3.724
7 regular 2 33 133 48 3 0.305 faster 0 2.066947e+06 2.066951e+06 3.699
7 regular 2 34 134 47 3 0.314 slower 1 2.066952e+06 2.066956e+06 3.860
7 regular 2 35 135 48 3 0.374 faster 0 2.066957e+06 2.066960e+06 3.671
7 regular 2 36 136 73 3 0.412 faster 1 2.066962e+06 2.066966e+06 3.705
7 regular 2 37 137 73 3 0.491 faster 1 2.066967e+06 2.066970e+06 3.579
7 regular 2 38 138 48 3 0.108 faster 0 2.066971e+06 2.066975e+06 3.663
7 regular 2 39 139 73 3 0.594 faster 1 2.066977e+06 2.066980e+06 3.642
7 regular 2 40 140 73 3 0.292 faster 1 2.066981e+06 2.066985e+06 3.858
7 regular 2 41 141 72 3 0.452 faster 1 2.066986e+06 2.066990e+06 3.629
7 regular 2 42 142 48 3 0.461 faster 0 2.066991e+06 2.066995e+06 3.616
7 regular 2 43 143 73 3 0.339 faster 1 2.066996e+06 2.067000e+06 3.685
7 regular 2 44 144 48 3 0.182 none 2 2.067001e+06 2.067007e+06 5.999
7 regular 2 45 145 72 3 0.471 faster 1 2.067008e+06 2.067012e+06 3.646
7 regular 2 46 146 72 3 0.548 faster 1 2.067015e+06 2.067019e+06 3.600
7 regular 2 47 147 71 3 0.106 faster 1 2.067020e+06 2.067023e+06 3.618
7 regular 2 48 148 71 3 0.553 faster 1 2.067024e+06 2.067028e+06 3.760
7 regular 2 49 149 70 3 0.344 faster 1 2.067029e+06 2.067033e+06 3.625
7 regular 2 50 150 70 3 0.220 faster 1 2.067034e+06 2.067037e+06 3.533
7 regular 2 51 151 51 3 0.208 faster 0 2.067040e+06 2.067044e+06 3.700
7 regular 2 52 152 70 3 0.191 faster 1 2.067045e+06 2.067048e+06 3.552
7 regular 2 53 153 70 3 0.561 faster 1 2.067049e+06 2.067053e+06 3.833
7 regular 2 54 154 51 3 0.352 slower 1 2.067055e+06 2.067058e+06 3.876
7 regular 2 55 155 51 3 0.522 slower 1 2.067060e+06 2.067065e+06 4.751
7 regular 2 56 156 68 3 0.495 faster 1 2.067067e+06 2.067071e+06 3.673
7 regular 2 57 157 52 3 0.267 faster 0 2.067075e+06 2.067079e+06 3.641
7 regular 2 58 158 51 3 0.494 faster 0 2.067083e+06 2.067087e+06 4.120
7 regular 2 59 159 50 3 0.149 slower 1 2.067089e+06 2.067092e+06 3.838
7 regular 2 60 160 51 3 0.566 slower 1 2.067094e+06 2.067098e+06 4.067
7 regular 2 61 161 51 3 0.384 faster 0 2.067099e+06 2.067103e+06 3.628
7 regular 2 62 162 50 3 0.184 faster 0 2.067104e+06 2.067107e+06 3.706
7 regular 2 63 163 49 3 0.305 slower 1 2.067110e+06 2.067113e+06 3.785
7 regular 2 64 164 70 3 0.458 slower 0 2.067116e+06 2.067121e+06 4.973
7 regular 2 65 165 49 3 0.277 slower 1 2.067123e+06 2.067126e+06 3.712
7 regular 2 66 166 49 3 0.487 slower 1 2.067128e+06 2.067132e+06 3.986
7 regular 2 67 167 70 3 0.205 faster 1 2.067133e+06 2.067137e+06 3.530
7 regular 2 68 168 70 3 0.267 faster 1 2.067138e+06 2.067142e+06 3.752
7 regular 2 69 169 51 3 0.492 slower 1 2.067144e+06 2.067148e+06 3.946
7 regular 2 70 170 69 3 0.554 slower 0 2.067149e+06 2.067152e+06 3.606
7 regular 2 71 171 50 3 0.182 none 2 2.067153e+06 2.067159e+06 5.999
7 regular 2 72 172 50 3 0.111 slower 1 2.067160e+06 2.067164e+06 3.613
7 regular 2 73 173 69 3 0.580 none 2 2.067165e+06 2.067171e+06 5.999
7 regular 2 74 174 51 3 0.304 slower 1 2.067172e+06 2.067176e+06 3.861
7 regular 2 75 175 51 3 0.339 slower 1 2.067177e+06 2.067181e+06 3.715
7 regular 2 76 176 68 3 0.420 faster 1 2.067182e+06 2.067186e+06 3.952
7 regular 2 77 177 52 3 0.572 faster 0 2.067188e+06 2.067192e+06 3.700
7 regular 2 78 178 69 3 0.465 faster 1 2.067193e+06 2.067197e+06 3.701
7 regular 2 79 179 68 3 0.356 faster 1 2.067198e+06 2.067202e+06 3.630
7 regular 2 80 180 68 3 0.387 slower 0 2.067213e+06 2.067217e+06 3.615
7 regular 2 81 181 51 3 0.206 slower 1 2.067217e+06 2.067221e+06 3.684
7 regular 2 82 182 68 3 0.394 slower 0 2.067222e+06 2.067226e+06 3.843
7 regular 2 83 183 51 3 0.351 slower 1 2.067227e+06 2.067231e+06 3.664
7 regular 2 84 184 69 3 0.225 faster 1 2.067232e+06 2.067237e+06 4.208
7 regular 2 85 185 52 3 0.546 faster 0 2.067238e+06 2.067242e+06 3.662
7 regular 2 86 186 51 3 0.262 faster 0 2.067243e+06 2.067247e+06 3.556
7 regular 2 87 187 70 3 0.481 faster 1 2.067271e+06 2.067275e+06 3.717
7 regular 2 88 188 70 3 0.513 faster 1 2.067276e+06 2.067280e+06 3.663
7 regular 2 89 189 69 3 0.266 faster 1 2.067281e+06 2.067285e+06 3.691
7 regular 2 90 190 51 3 0.322 faster 0 2.067286e+06 2.067290e+06 3.775
7 regular 2 91 191 70 3 0.224 faster 1 2.067291e+06 2.067295e+06 3.735
7 regular 2 92 192 51 3 0.525 slower 1 2.067296e+06 2.067300e+06 4.276
7 regular 2 93 193 69 3 0.239 slower 0 2.067301e+06 2.067305e+06 3.752
7 regular 2 94 194 50 3 0.534 faster 0 2.067306e+06 2.067310e+06 4.137
7 regular 2 95 195 49 3 0.527 faster 0 2.067312e+06 2.067315e+06 3.632
7 regular 2 96 196 48 3 0.588 faster 0 2.067317e+06 2.067320e+06 3.624
7 regular 2 97 197 47 3 0.139 slower 1 2.067321e+06 2.067325e+06 3.753
7 regular 2 98 198 72 3 0.467 faster 1 2.067326e+06 2.067329e+06 3.661
7 regular 2 99 199 48 3 0.476 slower 1 2.067331e+06 2.067334e+06 3.712
7 regular 2 100 200 49 3 0.433 slower 1 2.067338e+06 2.067341e+06 3.704
7 irregular 3 1 201 71 1 0.523 slower 0 2.067434e+06 2.067436e+06 1.944
7 irregular 3 2 202 48 2 0.535 slower 1 2.067438e+06 2.067440e+06 2.618
7 irregular 3 3 203 71 1 0.205 slower 0 2.067441e+06 2.067443e+06 1.739
7 irregular 3 4 204 48 1.500000e+00 0.261 slower 1 2.067444e+06 2.067446e+06 2.099
7 irregular 3 5 205 72 1.500000e+00 0.135 faster 1 2.067447e+06 2.067449e+06 2.302
7 irregular 3 6 206 71 3 0.553 slower 0 2.067450e+06 2.067454e+06 3.638
7 irregular 3 7 207 48 2.500000e+00 0.530 slower 1 2.067455e+06 2.067458e+06 3.170
7 irregular 3 8 208 72 2 0.143 slower 0 2.067459e+06 2.067462e+06 2.769
7 irregular 3 9 209 73 2.500000e+00 0.334 faster 1 2.067463e+06 2.067466e+06 3.316
7 irregular 3 10 210 72 1 0.246 slower 0 2.067467e+06 2.067469e+06 1.738
7 irregular 3 11 211 47 1.500000e+00 0.488 slower 1 2.067470e+06 2.067472e+06 2.286
7 irregular 3 12 212 47 1 0.171 slower 1 2.067473e+06 2.067475e+06 1.748
7 irregular 3 13 213 48 3 0.129 slower 1 2.067476e+06 2.067479e+06 3.561
7 irregular 3 14 214 48 2.500000e+00 0.472 faster 0 2.067480e+06 2.067483e+06 3.072
7 irregular 3 15 215 73 2 0.502 slower 0 2.067484e+06 2.067487e+06 2.686
7 irregular 3 16 216 74 1 0.300 slower 0 2.067488e+06 2.067490e+06 1.600
7 irregular 3 17 217 75 2.500000e+00 0.193 slower 0 2.067491e+06 2.067494e+06 3.045
7 irregular 3 18 218 44 2 0.550 slower 1 2.067495e+06 2.067497e+06 2.545
7 irregular 3 19 219 75 2 0.115 slower 0 2.067498e+06 2.067501e+06 2.649
7 irregular 3 20 220 44 1 0.509 slower 1 2.067502e+06 2.067504e+06 1.799
7 irregular 3 21 221 44 2.500000e+00 0.441 slower 1 2.067505e+06 2.067508e+06 3.113
7 irregular 3 22 222 45 1 0.179 slower 1 2.067509e+06 2.067511e+06 1.734
7 irregular 3 23 223 45 1.500000e+00 0.330 slower 1 2.067512e+06 2.067514e+06 2.022
7 irregular 3 24 224 46 1 0.472 slower 1 2.067515e+06 2.067516e+06 1.633
7 irregular 3 25 225 74 1.500000e+00 0.171 faster 1 2.067517e+06 2.067519e+06 2.209
7 irregular 3 26 226 47 1.500000e+00 0.219 slower 1 2.067520e+06 2.067522e+06 2.002
7 irregular 3 27 227 73 1.500000e+00 0.303 faster 1 2.067523e+06 2.067525e+06 2.273
7 irregular 3 28 228 48 3 0.204 faster 0 2.067526e+06 2.067525e+06 -0.876
7 irregular 3 29 229 73 2.500000e+00 0.488 slower 0 2.067531e+06 2.067534e+06 3.396
7 irregular 3 30 230 46 2.500000e+00 0.434 none 2 2.067535e+06 2.067541e+06 5.500
7 irregular 3 31 231 74 3 0.125 faster 1 2.067542e+06 2.067545e+06 3.692
7 irregular 3 32 232 46 1.500000e+00 0.402 slower 1 2.067547e+06 2.067549e+06 2.365
7 irregular 3 33 233 47 2 0.158 slower 1 2.067550e+06 2.067552e+06 2.624
7 irregular 3 34 234 73 2 0.494 faster 1 2.067553e+06 2.067556e+06 2.704
7 irregular 3 35 235 48 2.500000e+00 0.464 slower 1 2.067557e+06 2.067561e+06 3.225
7 irregular 3 36 236 72 1.500000e+00 0.526 faster 1 2.067562e+06 2.067564e+06 2.176
7 irregular 3 37 237 49 3 0.292 slower 1 2.067565e+06 2.067569e+06 3.686
7 irregular 3 38 238 49 3 0.567 slower 1 2.067570e+06 2.067573e+06 3.698
7 irregular 3 39 239 50 2 0.145 slower 1 2.067574e+06 2.067577e+06 2.896
7 irregular 3 40 240 50 1 0.337 slower 1 2.067578e+06 2.067580e+06 1.607
7 irregular 3 41 241 51 3 0.572 slower 1 2.067581e+06 2.067585e+06 3.604
7 irregular 3 42 242 51 3 0.187 slower 1 2.067585e+06 2.067589e+06 3.527
7 irregular 3 43 243 68 1 0.172 faster 1 2.067590e+06 2.067592e+06 1.707
7 irregular 3 44 244 68 3 0.331 slower 0 2.067593e+06 2.067597e+06 4.180
7 irregular 3 45 245 69 1 0.564 slower 0 2.067598e+06 2.067600e+06 1.617
7 irregular 3 46 246 70 2.500000e+00 0.570 faster 1 2.067601e+06 2.067604e+06 3.088
7 irregular 3 47 247 51 1 0.186 faster 0 2.067605e+06 2.067608e+06 2.427
7 irregular 3 48 248 70 3 0.305 faster 1 2.067609e+06 2.067613e+06 3.702
7 irregular 3 49 249 70 2 0.140 slower 0 2.067614e+06 2.067616e+06 2.817
7 irregular 3 50 250 71 2.500000e+00 0.258 slower 0 2.067617e+06 2.067621e+06 3.446
7 irregular 3 51 251 72 1.500000e+00 0.418 faster 1 2.067622e+06 2.067625e+06 2.362
7 irregular 3 52 252 49 2 0.265 slower 1 2.067626e+06 2.067628e+06 2.808
7 irregular 3 53 253 71 3 0.476 slower 0 2.067630e+06 2.067633e+06 3.986
7 irregular 3 54 254 48 2.500000e+00 0.122 slower 1 2.067635e+06 2.067638e+06 3.251
7 irregular 3 55 255 71 3 0.568 slower 0 2.067639e+06 2.067643e+06 4.310
7 irregular 3 56 256 72 3 0.491 none 2 2.067645e+06 2.067651e+06 5.999
7 irregular 3 57 257 48 1 0.482 slower 1 2.067652e+06 2.067655e+06 3.029
7 irregular 3 58 258 72 1.500000e+00 0.301 faster 1 2.067656e+06 2.067658e+06 2.266
7 irregular 3 59 259 49 3 0.420 slower 1 2.067659e+06 2.067663e+06 3.637
7 irregular 3 60 260 49 2 0.552 slower 1 2.067664e+06 2.067667e+06 2.970
7 irregular 3 61 261 50 3 0.445 slower 1 2.067670e+06 2.067674e+06 3.796
7 irregular 3 62 262 70 2 0.128 faster 1 2.067674e+06 2.067678e+06 3.355
7 irregular 3 63 263 51 2.500000e+00 0.452 slower 1 2.067679e+06 2.067682e+06 3.078
7 irregular 3 64 264 69 1 0.315 slower 0 2.067683e+06 2.067685e+06 1.937
7 irregular 3 65 265 70 2.500000e+00 0.288 slower 0 2.067686e+06 2.067689e+06 3.381
7 irregular 3 66 266 71 1.500000e+00 0.411 slower 0 2.067690e+06 2.067693e+06 2.347
7 irregular 3 67 267 48 2.500000e+00 0.519 slower 1 2.067694e+06 2.067697e+06 3.068
7 irregular 3 68 268 49 2 0.374 slower 1 2.067698e+06 2.067701e+06 2.536
7 irregular 3 69 269 49 1 0.252 slower 1 2.067701e+06 2.067704e+06 2.239
7 irregular 3 70 270 50 2 0.107 slower 1 2.067704e+06 2.067707e+06 2.789
7 irregular 3 71 271 70 2.500000e+00 0.166 slower 0 2.067708e+06 2.067712e+06 4.136
7 irregular 3 72 272 49 3 0.465 slower 1 2.067713e+06 2.067717e+06 3.660
7 irregular 3 73 273 70 1.500000e+00 0.368 slower 0 2.067718e+06 2.067720e+06 2.125
7 irregular 3 74 274 49 1 0.413 slower 1 2.067723e+06 2.067725e+06 1.906
7 irregular 3 75 275 71 2 0.472 none 2 2.067729e+06 2.067734e+06 4.999
7 irregular 3 76 276 71 2.500000e+00 0.250 faster 1 2.067735e+06 2.067739e+06 4.356
7 irregular 3 77 277 50 1.500000e+00 0.151 slower 1 2.067741e+06 2.067743e+06 2.131
7 irregular 3 78 278 70 3 0.244 slower 0 2.067744e+06 2.067748e+06 3.883
7 irregular 3 79 279 71 3 0.126 slower 0 2.067756e+06 2.067760e+06 3.815
7 irregular 3 80 280 48 1 0.173 slower 1 2.067761e+06 2.067763e+06 2.000
7 irregular 3 81 281 71 2 0.423 faster 1 2.067766e+06 2.067768e+06 2.783
7 irregular 3 82 282 49 1.500000e+00 0.102 slower 1 2.067773e+06 2.067775e+06 2.276
7 irregular 3 83 283 70 1 0.112 slower 0 2.067776e+06 2.067778e+06 1.948
7 irregular 3 84 284 49 1.500000e+00 0.126 slower 1 2.067779e+06 2.067781e+06 2.272
7 irregular 3 85 285 49 3 0.163 slower 1 2.067784e+06 2.067788e+06 3.946
7 irregular 3 86 286 50 2.500000e+00 0.189 faster 0 2.067788e+06 2.067792e+06 3.217
7 irregular 3 87 287 71 2.500000e+00 0.224 slower 0 2.067802e+06 2.067805e+06 3.686
7 irregular 3 88 288 72 1.500000e+00 0.594 slower 0 2.067807e+06 2.067809e+06 2.239
7 irregular 3 89 289 73 2 0.360 faster 1 2.067810e+06 2.067813e+06 2.785
7 irregular 3 90 290 47 2 0.346 slower 1 2.067816e+06 2.067818e+06 2.709
7 irregular 3 91 291 72 2.500000e+00 0.423 slower 0 2.067820e+06 2.067823e+06 3.044
7 irregular 3 92 292 47 2 0.386 slower 1 2.067826e+06 2.067829e+06 2.769
7 irregular 3 93 293 47 2.500000e+00 0.159 slower 1 2.067830e+06 2.067833e+06 3.220
7 irregular 3 94 294 72 1.500000e+00 0.424 slower 0 2.067835e+06 2.067837e+06 2.141
7 irregular 3 95 295 73 1 0.193 faster 1 2.067857e+06 2.067860e+06 2.656
7 irregular 3 96 296 73 1 0.310 faster 1 2.067861e+06 2.067864e+06 2.891
7 irregular 3 97 297 72 2 0.586 slower 0 2.067865e+06 2.067868e+06 2.975
7 irregular 3 98 298 47 1.500000e+00 0.202 slower 1 2.067869e+06 2.067872e+06 2.635
7 irregular 3 99 299 73 3 0.257 slower 0 2.067873e+06 2.067876e+06 3.907
7 irregular 3 100 300 46 1.500000e+00 0.448 slower 1 2.067878e+06 2.067880e+06 2.281
7 regular 4 1 301 47 2.500000e+00 0.386 slower 1 2.067965e+06 2.067968e+06 3.562
7 regular 4 2 302 47 2.500000e+00 0.597 slower 1 2.067969e+06 2.067973e+06 3.364
7 regular 4 3 303 72 2.500000e+00 0.575 faster 1 2.067974e+06 2.067977e+06 3.223
7 regular 4 4 304 48 2.500000e+00 0.121 slower 1 2.067978e+06 2.067982e+06 3.966
7 regular 4 5 305 49 2.500000e+00 0.154 faster 0 2.067983e+06 2.067986e+06 3.442
7 regular 4 6 306 48 2.500000e+00 0.125 slower 1 2.067987e+06 2.067991e+06 3.899
7 regular 4 7 307 72 2.500000e+00 0.196 faster 1 2.067992e+06 2.067995e+06 3.224
7 regular 4 8 308 49 2.500000e+00 0.434 slower 1 2.067997e+06 2.068000e+06 3.378
7 regular 4 9 309 49 2.500000e+00 0.203 slower 1 2.068001e+06 2.068005e+06 3.342
7 regular 4 10 310 50 2.500000e+00 0.169 slower 1 2.068006e+06 2.068009e+06 3.482
7 regular 4 11 311 50 2.500000e+00 0.559 slower 1 2.068010e+06 2.068014e+06 3.200
7 regular 4 12 312 69 2.500000e+00 0.392 faster 1 2.068015e+06 2.068018e+06 3.111
7 regular 4 13 313 69 2.500000e+00 0.133 faster 1 2.068019e+06 2.068022e+06 3.169
7 regular 4 14 314 52 2.500000e+00 0.526 faster 0 2.068024e+06 2.068027e+06 3.125
7 regular 4 15 315 69 2.500000e+00 0.517 faster 1 2.068028e+06 2.068031e+06 3.175
7 regular 4 16 316 69 2.500000e+00 0.362 faster 1 2.068032e+06 2.068035e+06 3.112
7 regular 4 17 317 68 2.500000e+00 0.400 faster 1 2.068037e+06 2.068041e+06 3.099
7 regular 4 18 318 68 2.500000e+00 0.110 faster 1 2.068042e+06 2.068045e+06 3.051
7 regular 4 19 319 67 2.500000e+00 0.544 slower 0 2.068046e+06 2.068049e+06 3.034
7 regular 4 20 320 68 2.500000e+00 0.594 faster 1 2.068050e+06 2.068053e+06 3.153
7 regular 4 21 321 68 2.500000e+00 0.101 faster 1 2.068054e+06 2.068058e+06 3.393
7 regular 4 22 322 53 2.500000e+00 0.353 faster 0 2.068059e+06 2.068062e+06 3.088
7 regular 4 23 323 52 2.500000e+00 0.142 faster 0 2.068062e+06 2.068066e+06 3.374
7 regular 4 24 324 51 2.500000e+00 0.510 faster 0 2.068067e+06 2.068070e+06 3.148
7 regular 4 25 325 70 2.500000e+00 0.363 slower 0 2.068071e+06 2.068075e+06 3.621
7 regular 4 26 326 71 2.500000e+00 0.348 slower 0 2.068076e+06 2.068079e+06 3.190
7 regular 4 27 327 48 2.500000e+00 0.592 slower 1 2.068081e+06 2.068084e+06 3.196
7 regular 4 28 328 48 2.500000e+00 0.371 slower 1 2.068085e+06 2.068088e+06 3.748
7 regular 4 29 329 49 2.500000e+00 0.473 slower 1 2.068090e+06 2.068093e+06 3.729
7 regular 4 30 330 49 2.500000e+00 0.180 faster 0 2.068094e+06 2.068098e+06 3.166
7 regular 4 31 331 48 2.500000e+00 0.463 faster 0 2.068099e+06 2.068102e+06 3.032
7 regular 4 32 332 73 2.500000e+00 0.449 faster 1 2.068103e+06 2.068106e+06 3.183
7 regular 4 33 333 48 2.500000e+00 0.253 faster 0 2.068107e+06 2.068110e+06 3.113
7 regular 4 34 334 47 2.500000e+00 0.386 slower 1 2.068112e+06 2.068116e+06 3.925
7 regular 4 35 335 73 2.500000e+00 0.487 faster 1 2.068118e+06 2.068121e+06 3.237
7 regular 4 36 336 72 2.500000e+00 0.299 faster 1 2.068122e+06 2.068125e+06 3.298
7 regular 4 37 337 48 2.500000e+00 0.409 faster 0 2.068126e+06 2.068130e+06 3.218
7 regular 4 38 338 73 2.500000e+00 0.210 faster 1 2.068131e+06 2.068134e+06 3.218
7 regular 4 39 339 72 2.500000e+00 0.459 faster 1 2.068135e+06 2.068139e+06 3.138
7 regular 4 40 340 48 2.500000e+00 0.427 slower 1 2.068140e+06 2.068143e+06 3.767
7 regular 4 41 341 49 2.500000e+00 0.234 slower 1 2.068144e+06 2.068148e+06 3.649
7 regular 4 42 342 49 2.500000e+00 0.349 faster 0 2.068149e+06 2.068153e+06 3.630
7 regular 4 43 343 72 2.500000e+00 0.469 slower 0 2.068154e+06 2.068158e+06 3.876
7 regular 4 44 344 47 2.500000e+00 0.226 slower 1 2.068159e+06 2.068163e+06 3.365
7 regular 4 45 345 48 2.500000e+00 0.369 slower 1 2.068164e+06 2.068167e+06 3.530
7 regular 4 46 346 48 2.500000e+00 0.354 slower 1 2.068168e+06 2.068172e+06 3.669
7 regular 4 47 347 49 2.500000e+00 0.321 none 2 2.068173e+06 2.068178e+06 5.499
7 regular 4 48 348 49 2.500000e+00 0.177 slower 1 2.068179e+06 2.068182e+06 3.299
7 regular 4 49 349 71 2.500000e+00 0.592 faster 1 2.068184e+06 2.068187e+06 3.819
7 regular 4 50 350 70 2.500000e+00 0.217 faster 1 2.068188e+06 2.068192e+06 3.302
7 regular 4 51 351 70 2.500000e+00 0.436 none 2 2.068193e+06 2.068198e+06 5.500
7 regular 4 52 352 50 2.500000e+00 0.268 slower 1 2.068199e+06 2.068204e+06 4.578
7 regular 4 53 353 69 2.500000e+00 0.120 faster 1 2.068205e+06 2.068209e+06 3.377
7 regular 4 54 354 69 2.500000e+00 0.551 faster 1 2.068210e+06 2.068213e+06 3.235
7 regular 4 55 355 52 2.500000e+00 0.192 slower 1 2.068214e+06 2.068218e+06 3.787
7 regular 4 56 356 68 2.500000e+00 0.488 faster 1 2.068219e+06 2.068222e+06 3.547
7 regular 4 57 357 67 2.500000e+00 0.153 faster 1 2.068223e+06 2.068226e+06 3.262
7 regular 4 58 358 67 2.500000e+00 0.557 faster 1 2.068228e+06 2.068231e+06 3.147
7 regular 4 59 359 54 2.500000e+00 0.524 faster 0 2.068233e+06 2.068236e+06 3.173
7 regular 4 60 360 67 2.500000e+00 0.526 faster 1 2.068238e+06 2.068242e+06 4.430
7 regular 4 61 361 67 2.500000e+00 0.463 faster 1 2.068244e+06 2.068247e+06 3.265
7 regular 4 62 362 54 2.500000e+00 0.457 faster 0 2.068248e+06 2.068252e+06 3.941
7 regular 4 63 363 53 2.500000e+00 0.571 faster 0 2.068253e+06 2.068257e+06 3.407
7 regular 4 64 364 52 2.500000e+00 0.103 faster 0 2.068258e+06 2.068261e+06 3.336
7 regular 4 65 365 69 2.500000e+00 0.444 faster 1 2.068262e+06 2.068265e+06 3.508
7 regular 4 66 366 51 2.500000e+00 0.596 slower 1 2.068267e+06 2.068270e+06 3.244
7 regular 4 67 367 68 2.500000e+00 0.595 slower 0 2.068271e+06 2.068274e+06 3.141
7 regular 4 68 368 51 2.500000e+00 0.538 slower 1 2.068282e+06 2.068285e+06 3.137
7 regular 4 69 369 69 2.500000e+00 0.186 faster 1 2.068287e+06 2.068290e+06 3.430
7 regular 4 70 370 68 2.500000e+00 0.141 faster 1 2.068292e+06 2.068295e+06 3.113
7 regular 4 71 371 52 2.500000e+00 0.535 faster 0 2.068296e+06 2.068299e+06 3.177
7 regular 4 72 372 69 2.500000e+00 0.434 faster 1 2.068300e+06 2.068303e+06 3.153
7 regular 4 73 373 68 2.500000e+00 0.336 faster 1 2.068304e+06 2.068307e+06 3.147
7 regular 4 74 374 68 2.500000e+00 0.592 faster 1 2.068309e+06 2.068312e+06 3.213
7 regular 4 75 375 53 2.500000e+00 0.309 faster 0 2.068313e+06 2.068317e+06 3.862
7 regular 4 76 376 68 2.500000e+00 0.125 faster 1 2.068318e+06 2.068321e+06 3.225
7 regular 4 77 377 52 2.500000e+00 0.328 slower 1 2.068323e+06 2.068327e+06 3.785
7 regular 4 78 378 67 2.500000e+00 0.500 slower 0 2.068329e+06 2.068332e+06 3.443
7 regular 4 79 379 68 2.500000e+00 0.586 slower 0 2.068334e+06 2.068338e+06 3.458
7 regular 4 80 380 69 2.500000e+00 0.249 slower 0 2.068339e+06 2.068342e+06 3.263
7 regular 4 81 381 50 2.500000e+00 0.276 slower 1 2.068343e+06 2.068347e+06 3.988
7 regular 4 82 382 70 2.500000e+00 0.321 slower 0 2.068348e+06 2.068352e+06 3.406
7 regular 4 83 383 49 2.500000e+00 0.300 slower 1 2.068353e+06 2.068356e+06 3.232
7 regular 4 84 384 50 2.500000e+00 0.462 slower 1 2.068357e+06 2.068360e+06 3.412
7 regular 4 85 385 50 2.500000e+00 0.113 faster 0 2.068362e+06 2.068365e+06 3.086
7 regular 4 86 386 71 2.500000e+00 0.478 faster 1 2.068366e+06 2.068370e+06 3.260
7 regular 4 87 387 70 2.500000e+00 0.464 slower 0 2.068371e+06 2.068375e+06 3.596
7 regular 4 88 388 71 2.500000e+00 0.152 faster 1 2.068376e+06 2.068379e+06 3.333
7 regular 4 89 389 49 2.500000e+00 0.256 faster 0 2.068380e+06 2.068384e+06 3.933
7 regular 4 90 390 72 2.500000e+00 0.414 faster 1 2.068385e+06 2.068388e+06 3.158
7 regular 4 91 391 71 2.500000e+00 0.129 faster 1 2.068390e+06 2.068393e+06 3.150
7 regular 4 92 392 71 2.500000e+00 0.254 slower 0 2.068394e+06 2.068397e+06 3.223
7 regular 4 93 393 48 2.500000e+00 0.598 faster 0 2.068399e+06 2.068403e+06 3.289
7 regular 4 94 394 47 2.500000e+00 0.311 slower 1 2.068404e+06 2.068407e+06 3.252
7 regular 4 95 395 72 2.500000e+00 0.544 faster 1 2.068409e+06 2.068412e+06 3.179
7 regular 4 96 396 48 2.500000e+00 0.250 slower 1 2.068417e+06 2.068420e+06 3.211
7 regular 4 97 397 71 2.500000e+00 0.516 faster 1 2.068421e+06 2.068425e+06 3.221
7 regular 4 98 398 49 2.500000e+00 0.292 faster 0 2.068425e+06 2.068429e+06 3.548
7 regular 4 99 399 48 2.500000e+00 0.209 slower 1 2.068430e+06 2.068433e+06 3.263
7 regular 4 100 400 71 2.500000e+00 0.283 slower 0 2.068434e+06 2.068438e+06 3.261
7 irregular 5 1 401 72 2 0.189 slower 0 2.068519e+06 2.068522e+06 2.595
7 irregular 5 2 402 47 3 0.554 slower 1 2.068524e+06 2.068527e+06 3.558
7 irregular 5 3 403 47 1.500000e+00 0.514 slower 1 2.068528e+06 2.068531e+06 2.583
7 irregular 5 4 404 72 2.500000e+00 0.371 slower 0 2.068532e+06 2.068535e+06 3.470
7 irregular 5 5 405 47 3 0.146 slower 1 2.068538e+06 2.068542e+06 3.555
7 irregular 5 6 406 73 1.500000e+00 0.515 slower 0 2.068543e+06 2.068545e+06 2.312
7 irregular 5 7 407 74 1 0.322 slower 0 2.068547e+06 2.068549e+06 1.907
7 irregular 5 8 408 75 3 0.215 slower 0 2.068550e+06 2.068555e+06 4.434
7 irregular 5 9 409 76 3 0.390 slower 0 2.068556e+06 2.068560e+06 3.790
7 irregular 5 10 410 77 2 0.303 slower 0 2.068561e+06 2.068563e+06 2.560
7 irregular 5 11 411 78 1 0.488 slower 0 2.068564e+06 2.068566e+06 1.670
7 irregular 5 12 412 41 2.500000e+00 0.163 slower 1 2.068567e+06 2.068570e+06 3.228
7 irregular 5 13 413 42 1 0.336 slower 1 2.068571e+06 2.068573e+06 1.688
7 irregular 5 14 414 42 1.500000e+00 0.334 slower 1 2.068574e+06 2.068576e+06 2.081
7 irregular 5 15 415 43 1.500000e+00 0.338 slower 1 2.068578e+06 2.068580e+06 2.064
7 irregular 5 16 416 43 2.500000e+00 0.498 slower 1 2.068581e+06 2.068585e+06 3.168
7 irregular 5 17 417 44 1.500000e+00 0.323 slower 1 2.068586e+06 2.068588e+06 2.094
7 irregular 5 18 418 76 3 0.282 faster 1 2.068589e+06 2.068592e+06 3.806
7 irregular 5 19 419 45 3 0.494 slower 1 2.068594e+06 2.068597e+06 3.737
7 irregular 5 20 420 45 1 0.518 slower 1 2.068598e+06 2.068601e+06 2.290
7 irregular 5 21 421 74 2.500000e+00 0.435 faster 1 2.068602e+06 2.068605e+06 3.448
7 irregular 5 22 422 74 1 0.139 faster 1 2.068606e+06 2.068608e+06 1.823
7 irregular 5 23 423 47 1 0.355 slower 1 2.068609e+06 2.068611e+06 1.617
7 irregular 5 24 424 73 1 0.128 faster 1 2.068611e+06 2.068613e+06 1.708
7 irregular 5 25 425 48 3 0.542 slower 1 2.068614e+06 2.068618e+06 3.547
7 irregular 5 26 426 48 1.500000e+00 0.520 slower 1 2.068619e+06 2.068621e+06 2.296
7 irregular 5 27 427 71 2 0.152 slower 0 2.068622e+06 2.068625e+06 2.823
7 irregular 5 28 428 72 2.500000e+00 0.112 none 2 2.068626e+06 2.068631e+06 5.499
7 irregular 5 29 429 48 2 0.256 slower 1 2.068632e+06 2.068635e+06 2.635
7 irregular 5 30 430 48 2 0.534 slower 1 2.068636e+06 2.068639e+06 2.693
7 irregular 5 31 431 49 1 0.538 slower 1 2.068640e+06 2.068642e+06 1.826
7 irregular 5 32 432 49 1.500000e+00 0.381 slower 1 2.068643e+06 2.068646e+06 2.472
7 irregular 5 33 433 50 2 0.186 slower 1 2.068647e+06 2.068650e+06 2.641
7 irregular 5 34 434 70 1 0.207 none 2 2.068650e+06 2.068654e+06 4.000
7 irregular 5 35 435 50 2 0.456 slower 1 2.068656e+06 2.068658e+06 2.665
7 irregular 5 36 436 51 2 0.388 slower 1 2.068660e+06 2.068662e+06 2.547
7 irregular 5 37 437 69 2.500000e+00 0.505 slower 0 2.068664e+06 2.068667e+06 3.176
7 irregular 5 38 438 70 2 0.515 slower 0 2.068668e+06 2.068671e+06 2.804
7 irregular 5 39 439 71 3 0.135 slower 0 2.068672e+06 2.068675e+06 3.630
7 irregular 5 40 440 72 3 0.251 slower 0 2.068676e+06 2.068680e+06 3.580
7 irregular 5 41 441 47 2 0.566 slower 1 2.068681e+06 2.068683e+06 2.610
7 irregular 5 42 442 72 3 0.572 none 2 2.068685e+06 2.068691e+06 5.999
7 irregular 5 43 443 72 3 0.444 faster 1 2.068692e+06 2.068696e+06 3.938
7 irregular 5 44 444 48 2.500000e+00 0.208 none 2 2.068697e+06 2.068703e+06 5.499
7 irregular 5 45 445 72 2.500000e+00 0.424 slower 0 2.068704e+06 2.068707e+06 3.127
7 irregular 5 46 446 47 2.500000e+00 0.565 slower 1 2.068709e+06 2.068712e+06 3.123
7 irregular 5 47 447 72 1 0.112 none 2 2.068714e+06 2.068718e+06 3.999
7 irregular 5 48 448 48 2 0.398 slower 1 2.068719e+06 2.068721e+06 2.646
7 irregular 5 49 449 72 2.500000e+00 0.265 faster 1 2.068723e+06 2.068726e+06 3.206
7 irregular 5 50 450 49 1 0.560 slower 1 2.068728e+06 2.068730e+06 1.711
7 irregular 5 51 451 49 3 0.525 slower 1 2.068731e+06 2.068735e+06 4.221
7 irregular 5 52 452 50 1 0.222 slower 1 2.068736e+06 2.068738e+06 1.854
7 irregular 5 53 453 50 1.500000e+00 0.113 slower 1 2.068739e+06 2.068741e+06 2.184
7 irregular 5 54 454 69 2 0.344 slower 0 2.068742e+06 2.068745e+06 2.859
7 irregular 5 55 455 70 1.500000e+00 0.169 slower 0 2.068746e+06 2.068748e+06 2.208
7 irregular 5 56 456 49 2.500000e+00 0.269 slower 1 2.068749e+06 2.068752e+06 3.285
7 irregular 5 57 457 49 3 0.166 slower 1 2.068753e+06 2.068757e+06 3.658
7 irregular 5 58 458 70 3 0.280 faster 1 2.068758e+06 2.068762e+06 4.159
7 irregular 5 59 459 70 2.500000e+00 0.393 slower 0 2.068763e+06 2.068767e+06 3.820
7 irregular 5 60 460 71 2 0.345 slower 0 2.068768e+06 2.068771e+06 2.604
7 irregular 5 61 461 48 1 0.476 slower 1 2.068772e+06 2.068774e+06 1.652
7 irregular 5 62 462 49 1 0.252 slower 1 2.068775e+06 2.068777e+06 1.640
7 irregular 5 63 463 49 3 0.217 slower 1 2.068777e+06 2.068781e+06 3.573
7 irregular 5 64 464 70 1.500000e+00 0.253 slower 0 2.068782e+06 2.068784e+06 2.098
7 irregular 5 65 465 71 1 0.488 slower 0 2.068786e+06 2.068788e+06 1.929
7 irregular 5 66 466 48 3 0.386 slower 1 2.068789e+06 2.068792e+06 3.609
7 irregular 5 67 467 72 1 0.574 slower 0 2.068794e+06 2.068796e+06 1.675
7 irregular 5 68 468 47 3 0.421 slower 1 2.068797e+06 2.068801e+06 3.698
7 irregular 5 69 469 72 3 0.260 faster 1 2.068802e+06 2.068805e+06 3.610
7 irregular 5 70 470 72 1.500000e+00 0.436 faster 1 2.068806e+06 2.068808e+06 2.091
7 irregular 5 71 471 71 2.500000e+00 0.353 faster 1 2.068810e+06 2.068813e+06 3.598
7 irregular 5 72 472 71 2.500000e+00 0.340 slower 0 2.068815e+06 2.068818e+06 3.168
7 irregular 5 73 473 72 2 0.568 slower 0 2.068819e+06 2.068822e+06 2.601
7 irregular 5 74 474 47 2.500000e+00 0.565 slower 1 2.068823e+06 2.068826e+06 3.208
7 irregular 5 75 475 48 2 0.130 faster 0 2.068827e+06 2.068831e+06 3.940
7 irregular 5 76 476 47 2 0.188 slower 1 2.068832e+06 2.068835e+06 2.602
7 irregular 5 77 477 73 1.500000e+00 0.486 slower 0 2.068837e+06 2.068839e+06 2.070
7 irregular 5 78 478 46 1 0.372 slower 1 2.068841e+06 2.068842e+06 1.690
7 irregular 5 79 479 73 1 0.147 faster 1 2.068844e+06 2.068845e+06 1.773
7 irregular 5 80 480 47 2.500000e+00 0.399 slower 1 2.068846e+06 2.068850e+06 3.108
7 irregular 5 81 481 48 2.500000e+00 0.370 slower 1 2.068851e+06 2.068854e+06 3.228
7 irregular 5 82 482 72 1.500000e+00 0.334 slower 0 2.068855e+06 2.068857e+06 2.378
7 irregular 5 83 483 47 1.500000e+00 0.168 slower 1 2.068858e+06 2.068861e+06 2.798
7 irregular 5 84 484 48 1.500000e+00 0.535 faster 0 2.068862e+06 2.068866e+06 3.764
7 irregular 5 85 485 73 2.500000e+00 0.322 slower 0 2.068867e+06 2.068870e+06 3.317
7 irregular 5 86 486 46 2 0.574 slower 1 2.068872e+06 2.068876e+06 4.746
7 irregular 5 87 487 46 2.500000e+00 0.248 slower 1 2.068877e+06 2.068880e+06 3.084
7 irregular 5 88 488 73 1.500000e+00 0.372 slower 0 2.068882e+06 2.068884e+06 2.178
7 irregular 5 89 489 46 2.500000e+00 0.579 slower 1 2.068885e+06 2.068888e+06 3.092
7 irregular 5 90 490 74 1 0.217 slower 0 2.068890e+06 2.068892e+06 2.029
7 irregular 5 91 491 75 1.500000e+00 0.383 none 2 2.068893e+06 2.068898e+06 4.500
7 irregular 5 92 492 75 2 0.162 faster 1 2.068898e+06 2.068901e+06 2.651
7 irregular 5 93 493 46 1.500000e+00 0.406 slower 1 2.068903e+06 2.068905e+06 2.242
7 irregular 5 94 494 46 1 0.246 slower 1 2.068906e+06 2.068908e+06 1.595
7 irregular 5 95 495 47 3 0.524 slower 1 2.068909e+06 2.068912e+06 3.589
7 irregular 5 96 496 73 3 0.507 faster 1 2.068914e+06 2.068917e+06 3.643
7 irregular 5 97 497 72 1.500000e+00 0.148 slower 0 2.068918e+06 2.068920e+06 2.160
7 irregular 5 98 498 73 2 0.302 slower 0 2.068921e+06 2.068924e+06 2.647
7 irregular 5 99 499 74 1.500000e+00 0.288 slower 0 2.068925e+06 2.068928e+06 2.238
7 irregular 5 100 500 75 2 0.468 slower 0 2.068929e+06 2.068931e+06 2.618
7 regular 6 1 501 70 1 0.507 slower 0 2.670937e+06 2.670939e+06 1.942
7 regular 6 2 502 72 1 0.462 faster 1 2.670940e+06 2.670942e+06 1.707
7 regular 6 3 503 48 1 0.550 slower 1 2.670945e+06 2.670947e+06 1.627
7 regular 6 4 504 50 1 0.502 slower 1 2.670948e+06 2.670950e+06 1.637
7 regular 6 5 505 50 1 0.457 slower 1 2.670951e+06 2.670953e+06 1.619
7 regular 6 6 506 52 1 0.264 slower 1 2.670955e+06 2.670957e+06 2.309
7 regular 6 7 507 52 1 0.194 faster 0 2.670958e+06 2.670959e+06 1.494
7 regular 6 8 508 50 1 0.511 slower 1 2.670960e+06 2.670962e+06 1.736
7 regular 6 9 509 68 1 0.180 faster 1 2.670963e+06 2.670965e+06 1.587
7 regular 6 10 510 68 1 0.487 faster 1 2.670967e+06 2.670968e+06 1.685
7 regular 6 11 511 53 1 0.346 slower 1 2.670969e+06 2.670971e+06 1.722
7 regular 6 12 512 53 1 0.329 faster 0 2.670972e+06 2.670974e+06 1.625
7 regular 6 13 513 68 1 0.406 faster 1 2.670975e+06 2.670976e+06 1.624
7 regular 6 14 514 67 1 0.477 slower 0 2.670978e+06 2.670979e+06 1.743
7 regular 6 15 515 68 1 0.535 slower 0 2.670981e+06 2.670982e+06 1.777
7 regular 6 16 516 51 1 0.112 slower 1 2.670983e+06 2.670985e+06 1.404
7 regular 6 17 517 51 1 0.447 slower 1 2.670986e+06 2.670988e+06 2.250
7 regular 6 18 518 52 1 0.553 slower 1 2.670989e+06 2.670991e+06 1.596
7 regular 6 19 519 68 1 0.156 slower 0 2.670992e+06 2.670993e+06 1.632
7 regular 6 20 520 69 1 0.505 faster 1 2.670995e+06 2.670996e+06 1.810
7 regular 6 21 521 52 1 0.334 faster 0 2.670998e+06 2.670999e+06 1.708
7 regular 6 22 522 69 1 0.459 slower 0 2.671000e+06 2.671002e+06 1.684
7 regular 6 23 523 70 1 0.590 faster 1 2.671003e+06 2.671006e+06 2.356
7 regular 6 24 524 70 1 0.598 slower 0 2.671007e+06 2.671009e+06 1.778
7 regular 6 25 525 71 1 0.419 faster 1 2.671011e+06 2.671013e+06 1.702
7 regular 6 26 526 70 1 0.232 faster 1 2.671013e+06 2.671015e+06 1.613
7 regular 6 27 527 50 1 0.304 slower 1 2.671016e+06 2.671018e+06 2.435
7 regular 6 28 528 69 1 0.384 faster 1 2.671019e+06 2.671021e+06 2.023
7 regular 6 29 529 69 1 0.540 faster 1 2.671023e+06 2.671026e+06 2.813
7 regular 6 30 530 68 1 0.134 faster 1 2.671027e+06 2.671029e+06 1.726
7 regular 6 31 531 52 1 0.172 slower 1 2.671030e+06 2.671031e+06 1.854
7 regular 6 32 532 53 1 0.207 slower 1 2.671033e+06 2.671035e+06 2.376
7 regular 6 33 533 67 1 0.211 slower 0 2.671036e+06 2.671038e+06 1.619
7 regular 6 34 534 52 1 0.447 slower 1 2.671039e+06 2.671041e+06 1.703
7 regular 6 35 535 67 1 0.110 slower 0 2.671042e+06 2.671044e+06 1.829
7 regular 6 36 536 52 1 0.245 slower 1 2.671045e+06 2.671046e+06 1.600
7 regular 6 37 537 52 1 0.521 slower 1 2.671047e+06 2.671049e+06 1.950
7 regular 6 38 538 53 1 0.135 slower 1 2.671051e+06 2.671052e+06 1.662
7 regular 6 39 539 53 1 0.581 slower 1 2.671053e+06 2.671055e+06 1.752
7 regular 6 40 540 54 1 0.171 slower 1 2.671056e+06 2.671058e+06 1.659
7 regular 6 41 541 66 1 0.588 slower 0 2.671059e+06 2.671061e+06 1.983
7 regular 6 42 542 53 1 0.192 slower 1 2.671062e+06 2.671063e+06 1.700
7 regular 6 43 543 54 1 0.360 slower 1 2.671064e+06 2.671066e+06 1.638
7 regular 6 44 544 66 1 0.456 slower 0 2.671068e+06 2.671070e+06 1.752
7 regular 6 45 545 67 1 0.294 slower 0 2.671071e+06 2.671072e+06 1.620
7 regular 6 46 546 68 1 0.583 slower 0 2.671073e+06 2.671075e+06 1.739
7 regular 6 47 547 51 1 0.489 slower 1 2.671077e+06 2.671079e+06 2.003
7 regular 6 48 548 68 1 0.161 slower 0 2.671081e+06 2.671083e+06 1.703
7 regular 6 49 549 69 1 0.224 faster 1 2.671085e+06 2.671087e+06 1.950
7 regular 6 50 550 51 1 0.185 slower 1 2.671088e+06 2.671091e+06 2.461
7 regular 6 51 551 68 1 0.434 slower 0 2.671092e+06 2.671095e+06 2.620
7 regular 6 52 552 69 1 0.552 slower 0 2.671103e+06 2.671104e+06 1.730
7 regular 6 53 553 50 1 0.123 slower 1 2.671106e+06 2.671109e+06 2.858
7 regular 6 54 554 70 1 0.343 faster 1 2.671110e+06 2.671111e+06 1.510
7 regular 6 55 555 69 1 0.118 slower 0 2.671112e+06 2.671114e+06 2.022
7 regular 6 56 556 70 1 0.280 faster 1 2.671115e+06 2.671117e+06 1.736
7 regular 6 57 557 50 1 0.151 slower 1 2.671119e+06 2.671120e+06 1.656
7 regular 6 58 558 51 1 0.200 slower 1 2.671122e+06 2.671123e+06 1.702
7 regular 6 59 559 51 1 0.531 slower 1 2.671124e+06 2.671126e+06 1.733
7 regular 6 60 560 68 1 0.126 slower 0 2.671127e+06 2.671129e+06 1.750
7 regular 6 61 561 51 1 0.447 slower 1 2.671130e+06 2.671132e+06 1.559
7 regular 6 62 562 69 1 0.482 slower 0 2.671133e+06 2.671134e+06 1.579
7 regular 6 63 563 50 1 0.164 slower 1 2.671135e+06 2.671137e+06 1.678
7 regular 6 64 564 51 1 0.302 slower 1 2.671138e+06 2.671140e+06 1.652
7 regular 6 65 565 51 1 0.105 slower 1 2.671141e+06 2.671142e+06 1.806
7 regular 6 66 566 52 1 0.368 slower 1 2.671144e+06 2.671146e+06 1.794
7 regular 6 67 567 52 1 0.433 faster 0 2.671147e+06 2.671149e+06 1.665
7 regular 6 68 568 69 1 0.114 faster 1 2.671150e+06 2.671152e+06 1.863
7 regular 6 69 569 68 1 0.169 faster 1 2.671153e+06 2.671154e+06 1.732
7 regular 6 70 570 52 1 0.337 slower 1 2.671155e+06 2.671158e+06 2.404
7 regular 6 71 571 53 1 0.526 slower 1 2.671159e+06 2.671161e+06 2.151
7 regular 6 72 572 67 1 0.367 slower 0 2.671163e+06 2.671165e+06 2.749
7 regular 6 73 573 52 1 0.580 slower 1 2.671168e+06 2.671170e+06 1.545
7 regular 6 74 574 67 1 0.260 faster 1 2.671171e+06 2.671173e+06 1.774
7 regular 6 75 575 67 1 0.579 faster 1 2.671175e+06 2.671177e+06 2.366
7 regular 6 76 576 54 1 0.364 slower 1 2.671178e+06 2.671180e+06 1.729
7 regular 6 77 577 66 1 0.571 slower 0 2.671182e+06 2.671183e+06 1.660
7 regular 6 78 578 67 1 0.170 faster 1 2.671184e+06 2.671186e+06 1.906
7 regular 6 79 579 66 1 0.237 slower 0 2.671187e+06 2.671189e+06 1.728
7 regular 6 80 580 53 1 0.453 slower 1 2.671190e+06 2.671193e+06 2.439
7 regular 6 81 581 53 1 0.332 slower 1 2.671194e+06 2.671196e+06 1.955
7 regular 6 82 582 54 1 0.196 slower 1 2.671197e+06 2.671199e+06 2.332
7 regular 6 83 583 66 1 0.340 slower 0 2.671201e+06 2.671203e+06 1.895
7 regular 6 84 584 67 1 0.171 slower 0 2.671204e+06 2.671206e+06 1.637
7 regular 6 85 585 52 1 0.173 slower 1 2.671206e+06 2.671210e+06 3.400
7 regular 6 86 586 67 1 0.426 faster 1 2.671211e+06 2.671213e+06 1.887
7 regular 6 87 587 53 1 0.300 slower 1 2.671214e+06 2.671216e+06 1.838
7 regular 6 88 588 66 1 0.475 slower 0 2.671217e+06 2.671218e+06 1.771
7 regular 6 89 589 53 1 0.510 slower 1 2.671220e+06 2.671222e+06 2.077
7 regular 6 90 590 67 1 0.361 slower 0 2.671223e+06 2.671225e+06 1.634
7 regular 6 91 591 68 1 0.143 slower 0 2.671225e+06 2.671227e+06 1.605
7 regular 6 92 592 69 1 0.151 slower 0 2.671228e+06 2.671230e+06 1.718
7 regular 6 93 593 70 1 0.384 faster 1 2.671231e+06 2.671233e+06 1.845
7 regular 6 94 594 51 1 0.418 slower 1 2.671234e+06 2.671237e+06 2.275
7 regular 6 95 595 51 1 0.401 faster 0 2.671238e+06 2.671240e+06 2.165
7 regular 6 96 596 50 1 0.108 slower 1 2.671241e+06 2.671243e+06 2.224
7 regular 6 97 597 69 1 0.426 faster 1 2.671244e+06 2.671246e+06 1.931
7 regular 6 98 598 51 1 0.443 slower 1 2.671248e+06 2.671249e+06 1.682
7 regular 6 99 599 52 1 0.443 slower 1 2.671250e+06 2.671253e+06 2.388
7 regular 6 100 600 68 1 0.576 slower 0 2.671254e+06 2.671256e+06 1.997
7 irregular 7 1 601 69 3 0.491 slower 0 2.671370e+06 2.671374e+06 3.909
7 irregular 7 2 602 50 3 0.549 slower 1 2.671376e+06 2.671380e+06 4.006
7 irregular 7 3 603 51 3 0.516 slower 1 2.671382e+06 2.671386e+06 3.855
7 irregular 7 4 604 69 1 0.277 slower 0 2.671387e+06 2.671388e+06 1.697
7 irregular 7 5 605 70 1.500000e+00 0.274 faster 1 2.671392e+06 2.671394e+06 2.702
7 irregular 7 6 606 69 2.500000e+00 0.303 faster 1 2.671395e+06 2.671400e+06 4.293
7 irregular 7 7 607 69 1 0.318 slower 0 2.671401e+06 2.671403e+06 2.046
7 irregular 7 8 608 50 3 0.470 slower 1 2.671404e+06 2.671408e+06 4.099
7 irregular 7 9 609 51 2.500000e+00 0.433 slower 1 2.671410e+06 2.671413e+06 3.795
7 irregular 7 10 610 69 1.500000e+00 0.489 slower 0 2.671414e+06 2.671417e+06 2.856
7 irregular 7 11 611 70 2.500000e+00 0.310 faster 1 2.671418e+06 2.671422e+06 3.420
7 irregular 7 12 612 51 1 0.590 faster 0 2.671423e+06 2.671425e+06 1.825
7 irregular 7 13 613 50 3 0.311 slower 1 2.671426e+06 2.671430e+06 3.811
7 irregular 7 14 614 50 1.500000e+00 0.485 slower 1 2.671431e+06 2.671433e+06 2.438
7 irregular 7 15 615 51 3 0.403 slower 1 2.671434e+06 2.671438e+06 4.113
7 irregular 7 16 616 69 1 0.355 slower 0 2.671439e+06 2.671442e+06 2.401
7 irregular 7 17 617 70 1.500000e+00 0.353 faster 1 2.671443e+06 2.671445e+06 2.413
7 irregular 7 18 618 69 2.500000e+00 0.421 faster 1 2.671446e+06 2.671450e+06 3.301
7 irregular 7 19 619 51 2.500000e+00 0.173 faster 0 2.671450e+06 2.671454e+06 3.798
7 irregular 7 20 620 50 2.500000e+00 0.386 slower 1 2.671455e+06 2.671459e+06 3.563
7 irregular 7 21 621 51 2 0.405 faster 0 2.671460e+06 2.671463e+06 2.879
7 irregular 7 22 622 50 2.500000e+00 0.329 faster 0 2.671464e+06 2.671467e+06 3.471
7 irregular 7 23 623 49 1.500000e+00 0.497 slower 1 2.671468e+06 2.671471e+06 2.369
7 irregular 7 24 624 71 1.500000e+00 0.475 faster 1 2.671472e+06 2.671475e+06 2.443
7 irregular 7 25 625 50 1.500000e+00 0.444 slower 1 2.671476e+06 2.671478e+06 2.528
7 irregular 7 26 626 50 2.500000e+00 0.572 slower 1 2.671480e+06 2.671484e+06 4.293
7 irregular 7 27 627 69 2.500000e+00 0.546 faster 1 2.671486e+06 2.671489e+06 3.371
7 irregular 7 28 628 69 1.500000e+00 0.163 slower 0 2.671491e+06 2.671493e+06 2.652
7 irregular 7 29 629 70 3 0.527 faster 1 2.671495e+06 2.671499e+06 3.817
7 irregular 7 30 630 69 2 0.350 slower 0 2.671500e+06 2.671503e+06 2.894
7 irregular 7 31 631 70 1 0.284 faster 1 2.671504e+06 2.671506e+06 1.836
7 irregular 7 32 632 50 2.500000e+00 0.574 slower 1 2.671507e+06 2.671510e+06 3.234
7 irregular 7 33 633 69 2 0.462 slower 0 2.671512e+06 2.671514e+06 2.742
7 irregular 7 34 634 50 1 0.126 slower 1 2.671515e+06 2.671517e+06 1.894
7 irregular 7 35 635 50 1.500000e+00 0.548 slower 1 2.671518e+06 2.671521e+06 2.409
7 irregular 7 36 636 69 3 0.396 slower 0 2.671522e+06 2.671526e+06 3.778
7 irregular 7 37 637 50 1.500000e+00 0.458 slower 1 2.671527e+06 2.671529e+06 2.262
7 irregular 7 38 638 70 2 0.216 faster 1 2.671530e+06 2.671533e+06 3.408
7 irregular 7 39 639 51 3 0.589 faster 0 2.671535e+06 2.671539e+06 4.375
7 irregular 7 40 640 70 3 0.559 faster 1 2.671541e+06 2.671545e+06 3.977
7 irregular 7 41 641 70 2.500000e+00 0.456 faster 1 2.671547e+06 2.671550e+06 3.187
7 irregular 7 42 642 51 2 0.373 slower 1 2.671552e+06 2.671554e+06 2.824
7 irregular 7 43 643 69 3 0.220 slower 0 2.671556e+06 2.671559e+06 3.631
7 irregular 7 44 644 50 3 0.266 slower 1 2.671560e+06 2.671564e+06 4.116
7 irregular 7 45 645 69 2.500000e+00 0.102 slower 0 2.671567e+06 2.671570e+06 3.244
7 irregular 7 46 646 70 1 0.275 slower 0 2.671571e+06 2.671574e+06 2.467
7 irregular 7 47 647 71 2.500000e+00 0.380 faster 1 2.671575e+06 2.671578e+06 3.069
7 irregular 7 48 648 71 3 0.350 faster 1 2.671580e+06 2.671584e+06 4.042
7 irregular 7 49 649 50 1.500000e+00 0.442 slower 1 2.671585e+06 2.671588e+06 2.315
7 irregular 7 50 650 50 2 0.444 slower 1 2.671589e+06 2.671593e+06 3.758
7 irregular 7 51 651 51 1 0.310 slower 1 2.671596e+06 2.671598e+06 2.130
7 irregular 7 52 652 51 1.500000e+00 0.383 slower 1 2.671599e+06 2.671601e+06 2.225
7 irregular 7 53 653 52 2 0.320 faster 0 2.671602e+06 2.671605e+06 2.882
7 irregular 7 54 654 69 2 0.406 slower 0 2.671607e+06 2.671609e+06 2.859
7 irregular 7 55 655 50 3 0.589 slower 1 2.671612e+06 2.671615e+06 3.721
7 irregular 7 56 656 50 2.500000e+00 0.449 slower 1 2.671618e+06 2.671621e+06 3.224
7 irregular 7 57 657 51 1 0.350 slower 1 2.671623e+06 2.671624e+06 1.696
7 irregular 7 58 658 69 1 0.232 slower 0 2.671626e+06 2.671628e+06 1.601
7 irregular 7 59 659 70 1.500000e+00 0.397 slower 0 2.671630e+06 2.671632e+06 2.119
7 irregular 7 60 660 71 2 0.320 slower 0 2.671636e+06 2.671639e+06 2.622
7 irregular 7 61 661 72 1 0.291 slower 0 2.671647e+06 2.671648e+06 1.224
7 irregular 7 62 662 73 3 0.459 slower 0 2.671651e+06 2.671655e+06 3.739
7 irregular 7 63 663 46 3 0.258 slower 1 2.671656e+06 2.671660e+06 4.064
7 irregular 7 64 664 47 2 0.366 slower 1 2.671662e+06 2.671665e+06 2.654
7 irregular 7 65 665 47 1.500000e+00 0.236 slower 1 2.671665e+06 2.671668e+06 2.216
7 irregular 7 66 666 48 1 0.390 slower 1 2.671669e+06 2.671670e+06 1.640
7 irregular 7 67 667 72 2 0.555 faster 1 2.671672e+06 2.671674e+06 2.716
7 irregular 7 68 668 71 3 0.275 faster 1 2.671675e+06 2.671679e+06 4.113
7 irregular 7 69 669 71 2.500000e+00 0.326 slower 0 2.671682e+06 2.671685e+06 3.211
7 irregular 7 70 670 72 2 0.305 faster 1 2.671688e+06 2.671692e+06 3.869
7 irregular 7 71 671 49 2 0.385 slower 1 2.671718e+06 2.671721e+06 2.691
7 irregular 7 72 672 71 2 0.153 faster 1 2.671722e+06 2.671725e+06 2.924
7 irregular 7 73 673 50 2.500000e+00 0.419 slower 1 2.671726e+06 2.671729e+06 3.210
7 irregular 7 74 674 50 1.500000e+00 0.398 slower 1 2.671730e+06 2.671732e+06 2.068
7 irregular 7 75 675 51 2.500000e+00 0.600 slower 1 2.671733e+06 2.671737e+06 4.069
7 irregular 7 76 676 51 1 0.110 slower 1 2.671739e+06 2.671740e+06 1.752
7 irregular 7 77 677 52 1 0.349 slower 1 2.671742e+06 2.671744e+06 1.770
7 irregular 7 78 678 68 1 0.114 none 2 2.671744e+06 2.671748e+06 4.000
7 irregular 7 79 679 52 1.500000e+00 0.495 slower 1 2.671750e+06 2.671753e+06 2.897
7 irregular 7 80 680 53 2 0.563 slower 1 2.671754e+06 2.671757e+06 3.132
7 irregular 7 81 681 67 1 0.157 slower 0 2.671758e+06 2.671759e+06 1.663
7 irregular 7 82 682 68 2.500000e+00 0.112 slower 0 2.671760e+06 2.671763e+06 3.193
7 irregular 7 83 683 69 3 0.571 faster 1 2.671765e+06 2.671768e+06 3.820
7 irregular 7 84 684 52 2 0.257 slower 1 2.671770e+06 2.671774e+06 3.869
7 irregular 7 85 685 68 1.500000e+00 0.262 slower 0 2.671775e+06 2.671777e+06 2.417
7 irregular 7 86 686 51 2.500000e+00 0.247 slower 1 2.671778e+06 2.671781e+06 3.196
7 irregular 7 87 687 52 2 0.447 slower 1 2.671783e+06 2.671785e+06 2.889
7 irregular 7 88 688 68 3 0.445 slower 0 2.671787e+06 2.671791e+06 3.826
7 irregular 7 89 689 51 1 0.167 slower 1 2.671791e+06 2.671793e+06 1.807
7 irregular 7 90 690 68 1 0.352 slower 0 2.671794e+06 2.671796e+06 1.742
7 irregular 7 91 691 69 1.500000e+00 0.236 slower 0 2.671797e+06 2.671799e+06 2.135
7 irregular 7 92 692 70 2 0.440 faster 1 2.671800e+06 2.671804e+06 3.533
7 irregular 7 93 693 50 1 0.575 slower 1 2.671806e+06 2.671807e+06 1.734
7 irregular 7 94 694 51 3 0.585 slower 1 2.671808e+06 2.671812e+06 3.621
7 irregular 7 95 695 69 2.500000e+00 0.496 faster 1 2.671814e+06 2.671817e+06 3.578
7 irregular 7 96 696 68 2 0.260 slower 0 2.671818e+06 2.671821e+06 2.800
7 irregular 7 97 697 51 2 0.269 faster 0 2.671822e+06 2.671825e+06 2.966
7 irregular 7 98 698 70 1.500000e+00 0.357 faster 1 2.671826e+06 2.671829e+06 2.624
7 irregular 7 99 699 70 1.500000e+00 0.450 slower 0 2.671830e+06 2.671832e+06 2.364
7 irregular 7 100 700 49 1 0.230 slower 1 2.671833e+06 2.671835e+06 2.302
7 regular 8 1 701 50 1.500000e+00 0.539 slower 1 2.672168e+06 2.672171e+06 2.495
7 regular 8 2 702 70 1.500000e+00 0.331 slower 0 2.672172e+06 2.672174e+06 2.393
7 regular 8 3 703 71 1.500000e+00 0.162 faster 1 2.672175e+06 2.672177e+06 2.241
7 regular 8 4 704 50 1.500000e+00 0.126 slower 1 2.672178e+06 2.672180e+06 2.087
7 regular 8 5 705 70 1.500000e+00 0.369 faster 1 2.672181e+06 2.672183e+06 2.403
7 regular 8 6 706 69 1.500000e+00 0.267 faster 1 2.672184e+06 2.672186e+06 2.256
7 regular 8 7 707 51 1.500000e+00 0.428 faster 0 2.672187e+06 2.672190e+06 2.338
7 regular 8 8 708 70 1.500000e+00 0.241 faster 1 2.672191e+06 2.672193e+06 2.226
7 regular 8 9 709 69 1.500000e+00 0.549 faster 1 2.672194e+06 2.672196e+06 2.119
7 regular 8 10 710 51 1.500000e+00 0.544 slower 1 2.672197e+06 2.672199e+06 2.073
7 regular 8 11 711 52 1.500000e+00 0.561 slower 1 2.672201e+06 2.672203e+06 2.421
7 regular 8 12 712 68 1.500000e+00 0.103 faster 1 2.672204e+06 2.672206e+06 2.529
7 regular 8 13 713 67 1.500000e+00 0.145 faster 1 2.672207e+06 2.672209e+06 2.149
7 regular 8 14 714 67 1.500000e+00 0.329 faster 1 2.672210e+06 2.672213e+06 2.673
7 regular 8 15 715 54 1.500000e+00 0.426 faster 0 2.672214e+06 2.672217e+06 3.080
7 regular 8 16 716 53 1.500000e+00 0.576 faster 0 2.672218e+06 2.672220e+06 2.166
7 regular 8 17 717 68 1.500000e+00 0.363 faster 1 2.672222e+06 2.672224e+06 2.139
7 regular 8 18 718 52 1.500000e+00 0.415 faster 0 2.672225e+06 2.672228e+06 3.005
7 regular 8 19 719 51 1.500000e+00 0.327 faster 0 2.672229e+06 2.672231e+06 2.158
7 regular 8 20 720 50 1.500000e+00 0.291 slower 1 2.672234e+06 2.672237e+06 2.598
7 regular 8 21 721 51 1.500000e+00 0.174 slower 1 2.672238e+06 2.672240e+06 2.334
7 regular 8 22 722 69 1.500000e+00 0.221 slower 0 2.672241e+06 2.672244e+06 2.386
7 regular 8 23 723 50 1.500000e+00 0.410 slower 1 2.672245e+06 2.672247e+06 2.356
7 regular 8 24 724 51 1.500000e+00 0.596 faster 0 2.672248e+06 2.672251e+06 2.260
7 regular 8 25 725 70 1.500000e+00 0.447 faster 1 2.672252e+06 2.672254e+06 2.190
7 regular 8 26 726 50 1.500000e+00 0.568 slower 1 2.672255e+06 2.672257e+06 2.196
7 regular 8 27 727 69 1.500000e+00 0.475 faster 1 2.672258e+06 2.672260e+06 2.179
7 regular 8 28 728 51 1.500000e+00 0.121 faster 0 2.672261e+06 2.672263e+06 2.152
7 regular 8 29 729 50 1.500000e+00 0.570 slower 1 2.672265e+06 2.672267e+06 2.142
7 regular 8 30 730 51 1.500000e+00 0.551 slower 1 2.672268e+06 2.672270e+06 2.389
7 regular 8 31 731 51 1.500000e+00 0.372 faster 0 2.672271e+06 2.672274e+06 2.490
7 regular 8 32 732 50 1.500000e+00 0.522 slower 1 2.672275e+06 2.672279e+06 3.658
7 regular 8 33 733 69 1.500000e+00 0.386 faster 1 2.672280e+06 2.672282e+06 2.193
7 regular 8 34 734 69 1.500000e+00 0.374 faster 1 2.672283e+06 2.672285e+06 2.213
7 regular 8 35 735 68 1.500000e+00 0.193 faster 1 2.672286e+06 2.672288e+06 2.090
7 regular 8 36 736 52 1.500000e+00 0.241 faster 0 2.672289e+06 2.672292e+06 2.531
7 regular 8 37 737 69 1.500000e+00 0.367 faster 1 2.672293e+06 2.672295e+06 2.127
7 regular 8 38 738 68 1.500000e+00 0.583 slower 0 2.672296e+06 2.672298e+06 1.938
7 regular 8 39 739 51 1.500000e+00 0.181 slower 1 2.672299e+06 2.672301e+06 2.125
7 regular 8 40 740 51 1.500000e+00 0.349 slower 1 2.672302e+06 2.672304e+06 2.194
7 regular 8 41 741 52 1.500000e+00 0.211 slower 1 2.672305e+06 2.672307e+06 2.218
7 regular 8 42 742 68 1.500000e+00 0.294 faster 1 2.672308e+06 2.672310e+06 2.218
7 regular 8 43 743 67 1.500000e+00 0.337 faster 1 2.672311e+06 2.672313e+06 2.200
7 regular 8 44 744 67 1.500000e+00 0.567 faster 1 2.672315e+06 2.672317e+06 2.228
7 regular 8 45 745 54 1.500000e+00 0.270 faster 0 2.672318e+06 2.672320e+06 2.201
7 regular 8 46 746 53 1.500000e+00 0.188 faster 0 2.672321e+06 2.672323e+06 2.217
7 regular 8 47 747 68 1.500000e+00 0.280 faster 1 2.672324e+06 2.672326e+06 2.171
7 regular 8 48 748 52 1.500000e+00 0.514 slower 1 2.672328e+06 2.672330e+06 2.482
7 regular 8 49 749 67 1.500000e+00 0.159 slower 0 2.672331e+06 2.672333e+06 2.217
7 regular 8 50 750 52 1.500000e+00 0.196 slower 1 2.672334e+06 2.672336e+06 2.253
7 regular 8 51 751 52 1.500000e+00 0.291 slower 1 2.672337e+06 2.672339e+06 2.244
7 regular 8 52 752 53 1.500000e+00 0.150 faster 0 2.672341e+06 2.672343e+06 2.335
7 regular 8 53 753 52 1.500000e+00 0.160 slower 1 2.672344e+06 2.672347e+06 2.922
7 regular 8 54 754 68 1.500000e+00 0.275 faster 1 2.672348e+06 2.672350e+06 2.196
7 regular 8 55 755 67 1.500000e+00 0.374 faster 1 2.672351e+06 2.672353e+06 2.203
7 regular 8 56 756 53 1.500000e+00 0.159 slower 1 2.672354e+06 2.672357e+06 2.667
7 regular 8 57 757 66 1.500000e+00 0.338 faster 1 2.672358e+06 2.672360e+06 2.055
7 regular 8 58 758 66 1.500000e+00 0.187 faster 1 2.672361e+06 2.672363e+06 2.092
7 regular 8 59 759 65 1.500000e+00 0.241 faster 1 2.672364e+06 2.672366e+06 2.043
7 regular 8 60 760 65 1.500000e+00 0.394 faster 1 2.672367e+06 2.672369e+06 2.182
7 regular 8 61 761 64 1.500000e+00 0.261 faster 1 2.672370e+06 2.672372e+06 2.105
7 regular 8 62 762 56 1.500000e+00 0.588 slower 1 2.672373e+06 2.672375e+06 2.177
7 regular 8 63 763 63 1.500000e+00 0.273 faster 1 2.672376e+06 2.672378e+06 2.214
7 regular 8 64 764 63 1.500000e+00 0.498 slower 0 2.672379e+06 2.672382e+06 2.349
7 regular 8 65 765 64 1.500000e+00 0.360 slower 0 2.672383e+06 2.672385e+06 2.186
7 regular 8 66 766 55 1.500000e+00 0.158 slower 1 2.672386e+06 2.672388e+06 2.288
7 regular 8 67 767 56 1.500000e+00 0.499 slower 1 2.672389e+06 2.672392e+06 2.450
7 regular 8 68 768 56 1.500000e+00 0.154 slower 1 2.672392e+06 2.672395e+06 2.513
7 regular 8 69 769 63 1.500000e+00 0.516 slower 0 2.672396e+06 2.672398e+06 2.308
7 regular 8 70 770 56 1.500000e+00 0.282 slower 1 2.672400e+06 2.672402e+06 2.270
7 regular 8 71 771 64 1.500000e+00 0.526 slower 0 2.672405e+06 2.672408e+06 2.635
7 regular 8 72 772 55 1.500000e+00 0.598 slower 1 2.672409e+06 2.672411e+06 2.273
7 regular 8 73 773 64 1.500000e+00 0.470 slower 0 2.672414e+06 2.672416e+06 2.416
7 regular 8 74 774 55 1.500000e+00 0.376 slower 1 2.672418e+06 2.672421e+06 2.742
7 regular 8 75 775 65 1.500000e+00 0.198 faster 1 2.672422e+06 2.672424e+06 2.092
7 regular 8 76 776 64 1.500000e+00 0.216 faster 1 2.672426e+06 2.672428e+06 2.689
7 regular 8 77 777 56 1.500000e+00 0.301 slower 1 2.672430e+06 2.672433e+06 2.925
7 regular 8 78 778 63 1.500000e+00 0.508 slower 0 2.672436e+06 2.672438e+06 2.323
7 regular 8 79 779 56 1.500000e+00 0.477 slower 1 2.672444e+06 2.672447e+06 2.689
7 regular 8 80 780 64 1.500000e+00 0.575 slower 0 2.672450e+06 2.672453e+06 2.590
7 regular 8 81 781 55 1.500000e+00 0.346 faster 0 2.672454e+06 2.672456e+06 2.289
7 regular 8 82 782 54 1.500000e+00 0.133 slower 1 2.672457e+06 2.672459e+06 2.225
7 regular 8 83 783 65 1.500000e+00 0.176 slower 0 2.672460e+06 2.672463e+06 2.243
7 regular 8 84 784 54 1.500000e+00 0.573 slower 1 2.672474e+06 2.672476e+06 2.166
7 regular 8 85 785 54 1.500000e+00 0.229 slower 1 2.672478e+06 2.672481e+06 2.419
7 regular 8 86 786 65 1.500000e+00 0.157 faster 1 2.672482e+06 2.672485e+06 2.291
7 regular 8 87 787 65 1.500000e+00 0.359 faster 1 2.672487e+06 2.672489e+06 2.198
7 regular 8 88 788 64 1.500000e+00 0.296 slower 0 2.672492e+06 2.672495e+06 2.764
7 regular 8 89 789 55 1.500000e+00 0.104 slower 1 2.672496e+06 2.672499e+06 2.625
7 regular 8 90 790 55 1.500000e+00 0.140 slower 1 2.672504e+06 2.672507e+06 2.231
7 regular 8 91 791 64 1.500000e+00 0.258 slower 0 2.672509e+06 2.672511e+06 2.093
7 regular 8 92 792 65 1.500000e+00 0.193 faster 1 2.672513e+06 2.672515e+06 2.166
7 regular 8 93 793 55 1.500000e+00 0.305 slower 1 2.672536e+06 2.672538e+06 2.278
7 regular 8 94 794 56 1.500000e+00 0.582 slower 1 2.672540e+06 2.672543e+06 2.135
7 regular 8 95 795 56 1.500000e+00 0.150 faster 0 2.672544e+06 2.672546e+06 2.325
7 regular 8 96 796 65 1.500000e+00 0.588 faster 1 2.672547e+06 2.672550e+06 2.274
7 regular 8 97 797 64 1.500000e+00 0.538 faster 1 2.672551e+06 2.672553e+06 2.179
7 regular 8 98 798 64 1.500000e+00 0.310 slower 0 2.672554e+06 2.672556e+06 2.132
7 regular 8 99 799 65 1.500000e+00 0.329 faster 1 2.672558e+06 2.672560e+06 2.209
7 regular 8 100 800 56 1.500000e+00 0.267 faster 0 2.672563e+06 2.672565e+06 2.229
7 irregular 9 1 801 65 1 0.119 slower 0 2.672743e+06 2.672744e+06 1.553
7 irregular 9 2 802 54 1 0.264 slower 1 2.672745e+06 2.672747e+06 1.531
7 irregular 9 3 803 54 2.500000e+00 0.213 slower 1 2.672748e+06 2.672751e+06 3.200
7 irregular 9 4 804 55 2.500000e+00 0.455 slower 1 2.672752e+06 2.672755e+06 3.123
7 irregular 9 5 805 65 2 0.309 slower 0 2.672756e+06 2.672759e+06 2.596
7 irregular 9 6 806 54 2 0.265 slower 1 2.672759e+06 2.672762e+06 2.565
7 irregular 9 7 807 65 1.500000e+00 0.544 faster 1 2.672763e+06 2.672765e+06 2.242
7 irregular 9 8 808 55 2.500000e+00 0.133 slower 1 2.672766e+06 2.672769e+06 3.095
7 irregular 9 9 809 56 1.500000e+00 0.240 faster 0 2.672770e+06 2.672773e+06 3.039
7 irregular 9 10 810 55 1 0.397 faster 0 2.672774e+06 2.672776e+06 1.797
7 irregular 9 11 811 66 2 0.354 slower 0 2.672777e+06 2.672780e+06 2.702
7 irregular 9 12 812 67 1.500000e+00 0.182 slower 0 2.672781e+06 2.672783e+06 2.308
7 irregular 9 13 813 68 2.500000e+00 0.240 slower 0 2.672784e+06 2.672787e+06 3.166
7 irregular 9 14 814 51 2.500000e+00 0.458 slower 1 2.672789e+06 2.672792e+06 3.040
7 irregular 9 15 815 51 2 0.217 slower 1 2.672792e+06 2.672795e+06 2.725
7 irregular 9 16 816 52 1 0.287 slower 1 2.672796e+06 2.672798e+06 1.728
7 irregular 9 17 817 52 2 0.513 slower 1 2.672799e+06 2.672802e+06 2.591
7 irregular 9 18 818 53 3 0.398 slower 1 2.672803e+06 2.672806e+06 3.612
7 irregular 9 19 819 53 1 0.376 slower 1 2.672807e+06 2.672809e+06 1.717
7 irregular 9 20 820 54 1.500000e+00 0.469 slower 1 2.672810e+06 2.672812e+06 2.031
7 irregular 9 21 821 66 2.500000e+00 0.230 slower 0 2.672813e+06 2.672816e+06 3.125
7 irregular 9 22 822 67 3 0.451 slower 0 2.672817e+06 2.672821e+06 3.589
7 irregular 9 23 823 68 1.500000e+00 0.358 slower 0 2.672824e+06 2.672826e+06 2.091
7 irregular 9 24 824 69 2 0.443 slower 0 2.672827e+06 2.672830e+06 2.578
7 irregular 9 25 825 50 2 0.439 slower 1 2.672831e+06 2.672833e+06 2.601
7 irregular 9 26 826 51 1.500000e+00 0.486 slower 1 2.672836e+06 2.672838e+06 2.111
7 irregular 9 27 827 69 1 0.543 slower 0 2.672839e+06 2.672841e+06 2.078
7 irregular 9 28 828 70 2.500000e+00 0.307 slower 0 2.672842e+06 2.672847e+06 4.814
7 irregular 9 29 829 71 1.500000e+00 0.314 faster 1 2.672848e+06 2.672850e+06 2.085
7 irregular 9 30 830 50 2 0.522 slower 1 2.672852e+06 2.672855e+06 2.728
7 irregular 9 31 831 70 3 0.585 faster 1 2.672856e+06 2.672860e+06 3.986
7 irregular 9 32 832 51 2.500000e+00 0.478 slower 1 2.672861e+06 2.672864e+06 3.264
7 irregular 9 33 833 51 2 0.589 slower 1 2.672865e+06 2.672868e+06 2.663
7 irregular 9 34 834 52 3 0.339 slower 1 2.672869e+06 2.672873e+06 4.066
7 irregular 9 35 835 52 1.500000e+00 0.240 slower 1 2.672874e+06 2.672876e+06 2.293
7 irregular 9 36 836 67 2.500000e+00 0.268 slower 0 2.672878e+06 2.672882e+06 3.242
7 irregular 9 37 837 68 3 0.538 faster 1 2.672883e+06 2.672887e+06 4.133
7 irregular 9 38 838 52 2 0.590 slower 1 2.672888e+06 2.672891e+06 2.680
7 irregular 9 39 839 53 2.500000e+00 0.310 slower 1 2.672892e+06 2.672895e+06 3.302
7 irregular 9 40 840 67 1 0.141 slower 0 2.672896e+06 2.672898e+06 1.767
7 irregular 9 41 841 68 1 0.549 slower 0 2.672899e+06 2.672901e+06 2.041
7 irregular 9 42 842 69 1 0.147 slower 0 2.672902e+06 2.672904e+06 1.656
7 irregular 9 43 843 70 2 0.445 slower 0 2.672905e+06 2.672907e+06 2.645
7 irregular 9 44 844 49 1 0.399 slower 1 2.672909e+06 2.672911e+06 1.635
7 irregular 9 45 845 70 2 0.267 faster 1 2.672912e+06 2.672915e+06 2.832
7 irregular 9 46 846 50 3 0.323 slower 1 2.672917e+06 2.672920e+06 3.766
7 irregular 9 47 847 69 2.500000e+00 0.246 slower 0 2.672922e+06 2.672925e+06 3.172
7 irregular 9 48 848 70 2 0.555 slower 0 2.672926e+06 2.672929e+06 2.735
7 irregular 9 49 849 49 1.500000e+00 0.471 slower 1 2.672931e+06 2.672933e+06 2.079
7 irregular 9 50 850 49 2.500000e+00 0.333 slower 1 2.672935e+06 2.672938e+06 3.179
7 irregular 9 51 851 50 1.500000e+00 0.324 slower 1 2.672940e+06 2.672942e+06 2.259
7 irregular 9 52 852 70 2.500000e+00 0.303 slower 0 2.672943e+06 2.672948e+06 4.938
7 irregular 9 53 853 49 1.500000e+00 0.213 slower 1 2.672949e+06 2.672952e+06 2.246
7 irregular 9 54 854 70 2 0.156 faster 1 2.672961e+06 2.672964e+06 3.347
7 irregular 9 55 855 70 3 0.105 slower 0 2.672967e+06 2.672971e+06 3.705
7 irregular 9 56 856 71 2.500000e+00 0.109 faster 1 2.672973e+06 2.672977e+06 3.559
7 irregular 9 57 857 50 3 0.143 faster 0 2.672981e+06 2.672985e+06 3.881
7 irregular 9 58 858 49 2.500000e+00 0.256 slower 1 2.672987e+06 2.672990e+06 2.981
7 irregular 9 59 859 71 1.500000e+00 0.172 slower 0 2.672993e+06 2.672996e+06 2.579
7 irregular 9 60 860 72 1 0.530 slower 0 2.673000e+06 2.673002e+06 2.106
7 irregular 9 61 861 47 3 0.254 slower 1 2.673005e+06 2.673009e+06 3.690
7 irregular 9 62 862 72 2.500000e+00 0.107 faster 1 2.673013e+06 2.673016e+06 3.471
7 irregular 9 63 863 48 2.500000e+00 0.513 slower 1 2.673019e+06 2.673023e+06 3.079
7 irregular 9 64 864 49 1.500000e+00 0.521 slower 1 2.673027e+06 2.673029e+06 2.225
7 irregular 9 65 865 49 2 0.140 slower 1 2.673045e+06 2.673049e+06 3.210
7 irregular 9 66 866 70 3 0.130 slower 0 2.673049e+06 2.673053e+06 3.799
7 irregular 9 67 867 49 1 0.513 none 2 2.673054e+06 2.673058e+06 3.999
7 irregular 9 68 868 49 2.500000e+00 0.435 slower 1 2.673060e+06 2.673064e+06 3.996
7 irregular 9 69 869 71 2 0.106 faster 1 2.673064e+06 2.673067e+06 2.512
7 irregular 9 70 870 70 1.500000e+00 0.596 slower 0 2.673068e+06 2.673070e+06 2.162
7 irregular 9 71 871 49 2 0.261 slower 1 2.673073e+06 2.673075e+06 2.688
7 irregular 9 72 872 71 1 0.135 slower 0 2.673077e+06 2.673079e+06 1.710
7 irregular 9 73 873 72 2.500000e+00 0.540 faster 1 2.673082e+06 2.673085e+06 3.426
7 irregular 9 74 874 49 1 0.476 faster 0 2.673087e+06 2.673089e+06 1.871
7 irregular 9 75 875 72 1.500000e+00 0.301 slower 0 2.673090e+06 2.673092e+06 2.626
7 irregular 9 76 876 47 1 0.242 slower 1 2.673105e+06 2.673106e+06 1.649
7 irregular 9 77 877 47 3 0.331 slower 1 2.673109e+06 2.673112e+06 3.603
7 irregular 9 78 878 48 1 0.374 slower 1 2.673147e+06 2.673149e+06 1.787
7 irregular 9 79 879 72 3 0.154 faster 1 2.673150e+06 2.673153e+06 3.616
7 irregular 9 80 880 71 3 0.497 faster 1 2.673155e+06 2.673158e+06 3.795
7 irregular 9 81 881 49 3 0.204 slower 1 2.673159e+06 2.673163e+06 4.096
7 irregular 9 82 882 50 1.500000e+00 0.373 faster 0 2.673164e+06 2.673167e+06 2.313
7 irregular 9 83 883 71 1.500000e+00 0.278 slower 0 2.673168e+06 2.673170e+06 2.165
7 irregular 9 84 884 72 3 0.406 faster 1 2.673171e+06 2.673175e+06 3.700
7 irregular 9 85 885 72 2.500000e+00 0.395 faster 1 2.673177e+06 2.673180e+06 3.268
7 irregular 9 86 886 49 3 0.164 slower 1 2.673182e+06 2.673186e+06 3.760
7 irregular 9 87 887 71 2 0.236 faster 1 2.673193e+06 2.673196e+06 2.800
7 irregular 9 88 888 50 1 0.213 faster 0 2.673197e+06 2.673198e+06 1.857
7 irregular 9 89 889 71 1 0.152 faster 1 2.673199e+06 2.673201e+06 1.793
7 irregular 9 90 890 49 2 0.586 slower 1 2.673202e+06 2.673205e+06 2.628
7 irregular 9 91 891 70 3 0.365 faster 1 2.673207e+06 2.673210e+06 3.744
7 irregular 9 92 892 70 1 0.157 faster 1 2.673211e+06 2.673213e+06 2.094
7 irregular 9 93 893 51 1.500000e+00 0.568 slower 1 2.673215e+06 2.673217e+06 2.318
7 irregular 9 94 894 69 1.500000e+00 0.320 slower 0 2.673218e+06 2.673220e+06 2.264
7 irregular 9 95 895 70 1.500000e+00 0.176 slower 0 2.673221e+06 2.673223e+06 2.440
7 irregular 9 96 896 49 3 0.543 slower 1 2.673225e+06 2.673228e+06 3.648
7 irregular 9 97 897 70 1 0.341 faster 1 2.673229e+06 2.673231e+06 2.068
7 irregular 9 98 898 70 2 0.141 slower 0 2.673232e+06 2.673235e+06 2.954
7 irregular 9 99 899 71 3 0.587 slower 0 2.673236e+06 2.673240e+06 3.652
7 irregular 9 100 900 48 3 0.521 slower 1 2.673241e+06 2.673245e+06 3.636
7 regular 10 1 901 49 2 0.206 slower 1 2.673340e+06 2.673342e+06 2.686
7 regular 10 2 902 49 2 0.289 slower 1 2.673344e+06 2.673346e+06 2.642
7 regular 10 3 903 70 2 0.466 faster 1 2.673347e+06 2.673350e+06 2.767
7 regular 10 4 904 50 2 0.123 faster 0 2.673351e+06 2.673354e+06 2.652
7 regular 10 5 905 71 2 0.400 slower 0 2.673355e+06 2.673358e+06 3.081
7 regular 10 6 906 48 2 0.503 slower 1 2.673359e+06 2.673362e+06 2.686
7 regular 10 7 907 71 2 0.192 faster 1 2.673363e+06 2.673366e+06 2.633
7 regular 10 8 908 49 2 0.267 slower 1 2.673367e+06 2.673369e+06 2.684
7 regular 10 9 909 70 2 0.579 slower 0 2.673371e+06 2.673373e+06 2.646
7 regular 10 10 910 49 2 0.306 slower 1 2.673374e+06 2.673377e+06 2.638
7 regular 10 11 911 49 2 0.565 slower 1 2.673378e+06 2.673381e+06 2.600
7 regular 10 12 912 50 2 0.375 slower 1 2.673382e+06 2.673384e+06 2.752
7 regular 10 13 913 70 2 0.210 slower 0 2.673385e+06 2.673388e+06 2.767
7 regular 10 14 914 49 2 0.182 slower 1 2.673389e+06 2.673392e+06 2.688
7 regular 10 15 915 50 2 0.182 faster 0 2.673392e+06 2.673395e+06 2.790
7 regular 10 16 916 49 2 0.576 slower 1 2.673396e+06 2.673399e+06 2.860
7 regular 10 17 917 49 2 0.426 slower 1 2.673400e+06 2.673404e+06 4.105
7 regular 10 18 918 50 2 0.410 slower 1 2.673405e+06 2.673408e+06 2.987
7 regular 10 19 919 70 2 0.443 faster 1 2.673410e+06 2.673412e+06 2.754
7 regular 10 20 920 69 2 0.124 faster 1 2.673414e+06 2.673416e+06 2.702
7 regular 10 21 921 51 2 0.246 faster 0 2.673417e+06 2.673420e+06 3.299
7 regular 10 22 922 50 2 0.254 faster 0 2.673422e+06 2.673425e+06 3.015
7 regular 10 23 923 49 2 0.218 slower 1 2.673426e+06 2.673429e+06 2.780
7 regular 10 24 924 70 2 0.169 slower 0 2.673430e+06 2.673432e+06 2.693
7 regular 10 25 925 71 2 0.298 slower 0 2.673433e+06 2.673437e+06 3.498
7 regular 10 26 926 72 2 0.451 slower 0 2.673438e+06 2.673441e+06 2.833
7 regular 10 27 927 73 2 0.332 slower 0 2.673442e+06 2.673445e+06 2.716
7 regular 10 28 928 74 2 0.528 faster 1 2.673446e+06 2.673449e+06 2.958
7 regular 10 29 929 46 2 0.202 slower 1 2.673449e+06 2.673452e+06 2.816
7 regular 10 30 930 73 2 0.500 faster 1 2.673453e+06 2.673456e+06 2.685
7 regular 10 31 931 73 2 0.118 faster 1 2.673457e+06 2.673460e+06 2.694
7 regular 10 32 932 48 2 0.481 slower 1 2.673461e+06 2.673464e+06 2.655
7 regular 10 33 933 48 2 0.233 slower 1 2.673465e+06 2.673468e+06 2.611
7 regular 10 34 934 71 2 0.156 slower 0 2.673469e+06 2.673471e+06 2.879
7 regular 10 35 935 72 2 0.377 faster 1 2.673472e+06 2.673475e+06 2.695
7 regular 10 36 936 72 2 0.534 faster 1 2.673476e+06 2.673479e+06 2.865
7 regular 10 37 937 71 2 0.384 faster 1 2.673480e+06 2.673483e+06 2.646
7 regular 10 38 938 49 2 0.402 faster 0 2.673484e+06 2.673487e+06 2.818
7 regular 10 39 939 48 2 0.109 slower 1 2.673487e+06 2.673490e+06 2.670
7 regular 10 40 940 71 2 0.135 slower 0 2.673491e+06 2.673495e+06 4.198
7 regular 10 41 941 48 2 0.178 slower 1 2.673496e+06 2.673499e+06 2.635
7 regular 10 42 942 48 2 0.226 slower 1 2.673500e+06 2.673502e+06 2.635
7 regular 10 43 943 49 2 0.395 faster 0 2.673503e+06 2.673507e+06 3.321
7 regular 10 44 944 72 2 0.563 faster 1 2.673508e+06 2.673510e+06 2.685
7 regular 10 45 945 48 2 0.592 slower 1 2.673512e+06 2.673514e+06 2.765
7 regular 10 46 946 49 2 0.558 faster 0 2.673516e+06 2.673518e+06 2.767
7 regular 10 47 947 72 2 0.312 slower 0 2.673519e+06 2.673522e+06 2.705
7 regular 10 48 948 47 2 0.324 slower 1 2.673523e+06 2.673526e+06 2.693
7 regular 10 49 949 73 2 0.532 faster 1 2.673527e+06 2.673530e+06 2.715
7 regular 10 50 950 72 2 0.191 faster 1 2.673530e+06 2.673533e+06 2.677
7 regular 10 51 951 72 2 0.376 faster 1 2.673534e+06 2.673537e+06 2.713
7 regular 10 52 952 71 2 0.363 faster 1 2.673538e+06 2.673541e+06 2.663
7 regular 10 53 953 49 2 0.543 faster 0 2.673542e+06 2.673544e+06 2.611
7 regular 10 54 954 72 2 0.539 faster 1 2.673546e+06 2.673548e+06 2.658
7 regular 10 55 955 49 2 0.225 slower 1 2.673550e+06 2.673554e+06 3.157
7 regular 10 56 956 49 2 0.130 slower 1 2.673555e+06 2.673557e+06 2.435
7 regular 10 57 957 50 2 0.316 slower 1 2.673558e+06 2.673561e+06 2.463
7 regular 10 58 958 70 2 0.322 slower 0 2.673562e+06 2.673564e+06 2.704
7 regular 10 59 959 49 2 0.253 slower 1 2.673565e+06 2.673568e+06 2.693
7 regular 10 60 960 50 2 0.415 faster 0 2.673569e+06 2.673572e+06 2.869
7 regular 10 61 961 71 2 0.232 faster 1 2.673574e+06 2.673577e+06 2.983
7 regular 10 62 962 49 2 0.507 faster 0 2.673578e+06 2.673581e+06 2.960
7 regular 10 63 963 48 2 0.294 faster 0 2.673582e+06 2.673584e+06 2.779
7 regular 10 64 964 47 2 0.320 slower 1 2.673587e+06 2.673589e+06 2.778
7 regular 10 65 965 72 2 0.305 slower 0 2.673590e+06 2.673594e+06 3.812
7 regular 10 66 966 73 2 0.470 faster 1 2.673599e+06 2.673601e+06 2.731
7 regular 10 67 967 47 2 0.280 slower 1 2.673602e+06 2.673606e+06 3.048
7 regular 10 68 968 72 2 0.260 faster 1 2.673607e+06 2.673609e+06 2.647
7 regular 10 69 969 72 2 0.434 slower 0 2.673611e+06 2.673614e+06 3.859
7 regular 10 70 970 47 2 0.570 slower 1 2.673616e+06 2.673618e+06 2.663
7 regular 10 71 971 72 2 0.476 faster 1 2.673619e+06 2.673622e+06 2.813
7 regular 10 72 972 48 2 0.321 slower 1 2.673624e+06 2.673622e+06 -2.243
7 regular 10 73 973 71 2 0.320 faster 1 2.673627e+06 2.673630e+06 2.972
7 regular 10 74 974 71 2 0.522 faster 1 2.673633e+06 2.673636e+06 2.703
7 regular 10 75 975 50 2 0.116 faster 0 2.673637e+06 2.673640e+06 2.852
7 regular 10 76 976 49 2 0.492 slower 1 2.673641e+06 2.673644e+06 3.292
7 regular 10 77 977 71 2 0.385 faster 1 2.673645e+06 2.673649e+06 3.147
7 regular 10 78 978 70 2 0.112 faster 1 2.673649e+06 2.673652e+06 2.665
7 regular 10 79 979 70 2 0.591 faster 1 2.673653e+06 2.673656e+06 2.826
7 regular 10 80 980 69 2 0.443 slower 0 2.673657e+06 2.673660e+06 2.814
7 regular 10 81 981 50 2 0.211 slower 1 2.673661e+06 2.673664e+06 2.780
7 regular 10 82 982 70 2 0.375 slower 0 2.673665e+06 2.673667e+06 2.592
7 regular 10 83 983 71 2 0.580 faster 1 2.673668e+06 2.673671e+06 3.014
7 regular 10 84 984 70 2 0.237 faster 1 2.673675e+06 2.673678e+06 2.669
7 regular 10 85 985 70 2 0.478 slower 0 2.673686e+06 2.673689e+06 2.792
7 regular 10 86 986 49 2 0.562 slower 1 2.673690e+06 2.673693e+06 2.807
7 regular 10 87 987 50 2 0.512 slower 1 2.673696e+06 2.673699e+06 3.039
7 regular 10 88 988 70 2 0.120 faster 1 2.673700e+06 2.673703e+06 2.683
7 regular 10 89 989 69 2 0.134 faster 1 2.673704e+06 2.673707e+06 2.616
7 regular 10 90 990 69 2 0.145 slower 0 2.673709e+06 2.673712e+06 2.748
7 regular 10 91 991 50 2 0.532 slower 1 2.673714e+06 2.673717e+06 2.608
7 regular 10 92 992 69 2 0.582 slower 0 2.673718e+06 2.673721e+06 2.777
7 regular 10 93 993 50 2 0.265 slower 1 2.673722e+06 2.673725e+06 2.567
7 regular 10 94 994 50 2 0.178 slower 1 2.673726e+06 2.673729e+06 2.729
7 regular 10 95 995 69 2 0.406 slower 0 2.673730e+06 2.673733e+06 3.338
7 regular 10 96 996 50 2 0.435 slower 1 2.673734e+06 2.673737e+06 2.680
7 regular 10 97 997 50 2 0.536 slower 1 2.673738e+06 2.673742e+06 3.269
7 regular 10 98 998 69 2 0.365 faster 1 2.673743e+06 2.673746e+06 3.200
7 regular 10 99 999 69 2 0.147 faster 1 2.673746e+06 2.673749e+06 2.676
7 regular 10 100 1000 52 2 0.297 faster 0 2.673750e+06 2.673753e+06 2.772
