subNo condition blockNo trialNo trialID currentFrequency cueTargetInterval randomPreCueInterval response responseAccuracy startTime responseTime RT
27 irregular 1 1 1 49 1 0.215 faster 0 1.556082e+06 1.556085e+06 2.357
27 irregular 1 2 2 73 1.500000e+00 0.159 faster 1 1.556086e+06 1.556088e+06 2.176
27 irregular 1 3 3 73 3 0.554 faster 1 1.556090e+06 1.556093e+06 3.531
27 irregular 1 4 4 71 1.500000e+00 0.192 faster 1 1.556095e+06 1.556097e+06 1.978
27 irregular 1 5 5 71 2.500000e+00 0.256 faster 1 1.556098e+06 1.556101e+06 2.875
27 irregular 1 6 6 51 1 0.395 faster 0 1.556103e+06 1.556104e+06 1.464
27 irregular 1 7 7 71 2 0.481 faster 1 1.556106e+06 1.556108e+06 2.357
27 irregular 1 8 8 49 2.500000e+00 0.191 slower 1 1.556110e+06 1.556113e+06 3.095
27 irregular 1 9 9 51 3 0.222 faster 0 1.556114e+06 1.556118e+06 3.618
27 irregular 1 10 10 50 3 0.138 faster 0 1.556119e+06 1.556123e+06 3.941
27 irregular 1 11 11 49 1 0.107 faster 0 1.556124e+06 1.556126e+06 1.862
27 irregular 1 12 12 48 3 0.550 faster 0 1.556128e+06 1.556132e+06 3.981
27 irregular 1 13 13 47 3 0.367 faster 0 1.556133e+06 1.556137e+06 3.972
27 irregular 1 14 14 74 1 0.123 faster 1 1.556139e+06 1.556141e+06 2.441
27 irregular 1 15 15 74 2.500000e+00 0.369 faster 1 1.556142e+06 1.556146e+06 3.358
27 irregular 1 16 16 73 2 0.579 faster 1 1.556147e+06 1.556150e+06 3.105
27 irregular 1 17 17 73 2.500000e+00 0.203 faster 1 1.556152e+06 1.556155e+06 3.070
27 irregular 1 18 18 48 2 0.103 slower 1 1.556156e+06 1.556159e+06 3.052
27 irregular 1 19 19 72 1.500000e+00 0.323 faster 1 1.556161e+06 1.556163e+06 2.018
27 irregular 1 20 20 71 2 0.111 faster 1 1.556164e+06 1.556167e+06 2.604
27 irregular 1 21 21 49 3 0.256 slower 1 1.556168e+06 1.556172e+06 3.651
27 irregular 1 22 22 70 2.500000e+00 0.317 faster 1 1.556173e+06 1.556176e+06 3.092
27 irregular 1 23 23 50 2.500000e+00 0.334 slower 1 1.556179e+06 1.556183e+06 3.478
27 irregular 1 24 24 51 2 0.250 faster 0 1.556184e+06 1.556187e+06 2.580
27 irregular 1 25 25 50 1 0.499 slower 1 1.556188e+06 1.556190e+06 2.044
27 irregular 1 26 26 50 1 0.230 slower 1 1.556192e+06 1.556193e+06 1.650
27 irregular 1 27 27 69 2 0.341 faster 1 1.556195e+06 1.556198e+06 2.844
27 irregular 1 28 28 69 1 0.181 faster 1 1.556199e+06 1.556201e+06 2.346
27 irregular 1 29 29 52 2 0.568 faster 0 1.556203e+06 1.556206e+06 2.631
27 irregular 1 30 30 69 1 0.109 faster 1 1.556208e+06 1.556209e+06 1.827
27 irregular 1 31 31 51 1.500000e+00 0.153 faster 0 1.556211e+06 1.556213e+06 2.285
27 irregular 1 32 32 70 2 0.199 faster 1 1.556214e+06 1.556217e+06 2.554
27 irregular 1 33 33 51 3 0.240 faster 0 1.556218e+06 1.556222e+06 3.592
27 irregular 1 34 34 50 1.500000e+00 0.146 faster 0 1.556223e+06 1.556225e+06 2.123
27 irregular 1 35 35 71 3 0.583 faster 1 1.556227e+06 1.556231e+06 3.569
27 irregular 1 36 36 71 1 0.529 faster 1 1.556233e+06 1.556235e+06 1.954
27 irregular 1 37 37 50 1.500000e+00 0.143 slower 1 1.556236e+06 1.556238e+06 2.541
27 irregular 1 38 38 50 2.500000e+00 0.355 faster 0 1.556240e+06 1.556244e+06 3.324
27 irregular 1 39 39 71 2 0.464 faster 1 1.556246e+06 1.556248e+06 2.679
27 irregular 1 40 40 70 1.500000e+00 0.147 faster 1 1.556251e+06 1.556254e+06 2.791
27 irregular 1 41 41 70 1.500000e+00 0.580 faster 1 1.556255e+06 1.556257e+06 2.202
27 irregular 1 42 42 69 2 0.475 faster 1 1.556259e+06 1.556261e+06 2.587
27 irregular 1 43 43 51 2.500000e+00 0.504 faster 0 1.556263e+06 1.556267e+06 3.601
27 irregular 1 44 44 70 1 0.275 faster 1 1.556269e+06 1.556270e+06 1.584
27 irregular 1 45 45 69 1 0.323 faster 1 1.556272e+06 1.556273e+06 1.603
27 irregular 1 46 46 51 3 0.271 slower 1 1.556275e+06 1.556279e+06 3.903
27 irregular 1 47 47 68 3 0.426 faster 1 1.556280e+06 1.556284e+06 3.723
27 irregular 1 48 48 68 2 0.522 faster 1 1.556286e+06 1.556288e+06 2.513
27 irregular 1 49 49 67 3 0.377 faster 1 1.556290e+06 1.556294e+06 3.668
27 irregular 1 50 50 53 3 0.274 faster 0 1.556295e+06 1.556299e+06 3.756
27 irregular 1 51 51 52 1.500000e+00 0.251 faster 0 1.556301e+06 1.556304e+06 2.147
27 irregular 1 52 52 51 2 0.400 faster 0 1.556305e+06 1.556308e+06 2.625
27 irregular 1 53 53 50 2.500000e+00 0.339 slower 1 1.556309e+06 1.556313e+06 3.536
27 irregular 1 54 54 51 1 0.511 slower 1 1.556315e+06 1.556317e+06 1.853
27 irregular 1 55 55 51 1 0.581 slower 1 1.556319e+06 1.556321e+06 1.855
27 irregular 1 56 56 68 1.500000e+00 0.524 faster 1 1.556323e+06 1.556325e+06 2.167
27 irregular 1 57 57 68 2.500000e+00 0.168 slower 0 1.556326e+06 1.556330e+06 3.483
27 irregular 1 58 58 51 2 0.146 slower 1 1.556331e+06 1.556334e+06 2.681
27 irregular 1 59 59 52 2.500000e+00 0.434 slower 1 1.556336e+06 1.556339e+06 3.124
27 irregular 1 60 60 68 1.500000e+00 0.267 faster 1 1.556341e+06 1.556343e+06 2.045
27 irregular 1 61 61 53 1.500000e+00 0.217 faster 0 1.556344e+06 1.556347e+06 2.220
27 irregular 1 62 62 68 1 0.198 faster 1 1.556348e+06 1.556350e+06 1.791
27 irregular 1 63 63 52 2 0.575 faster 0 1.556352e+06 1.556355e+06 2.613
27 irregular 1 64 64 69 1 0.207 faster 1 1.556356e+06 1.556358e+06 1.645
27 irregular 1 65 65 52 2 0.106 faster 0 1.556359e+06 1.556362e+06 2.898
27 irregular 1 66 66 69 2.500000e+00 0.146 faster 1 1.556364e+06 1.556367e+06 3.351
27 irregular 1 67 67 69 3 0.584 faster 1 1.556370e+06 1.556375e+06 4.838
27 irregular 1 68 68 68 1 0.316 faster 1 1.556377e+06 1.556379e+06 1.693
27 irregular 1 69 69 52 1.500000e+00 0.391 slower 1 1.556382e+06 1.556384e+06 2.633
27 irregular 1 70 70 67 2 0.119 faster 1 1.556387e+06 1.556389e+06 2.617
27 irregular 1 71 71 53 1.500000e+00 0.596 slower 1 1.556391e+06 1.556394e+06 2.377
27 irregular 1 72 72 66 2 0.441 faster 1 1.556395e+06 1.556399e+06 3.355
27 irregular 1 73 73 66 2.500000e+00 0.161 faster 1 1.556400e+06 1.556404e+06 3.609
27 irregular 1 74 74 65 2.500000e+00 0.515 faster 1 1.556405e+06 1.556408e+06 3.031
27 irregular 1 75 75 55 2.500000e+00 0.300 faster 0 1.556410e+06 1.556413e+06 3.203
27 irregular 1 76 76 66 1.500000e+00 0.595 faster 1 1.556416e+06 1.556418e+06 2.085
27 irregular 1 77 77 55 3 0.566 faster 0 1.556419e+06 1.556423e+06 4.239
27 irregular 1 78 78 54 2 0.344 slower 1 1.556433e+06 1.556437e+06 3.654
27 irregular 1 79 79 66 1.500000e+00 0.585 slower 0 1.556447e+06 1.556449e+06 2.540
27 irregular 1 80 80 53 1.500000e+00 0.267 faster 0 1.556451e+06 1.556454e+06 3.122
27 irregular 1 81 81 52 2.500000e+00 0.241 faster 0 1.556456e+06 1.556459e+06 3.289
27 irregular 1 82 82 51 2 0.505 slower 1 1.556462e+06 1.556465e+06 2.730
27 irregular 1 83 83 68 1 0.219 faster 1 1.556469e+06 1.556470e+06 1.731
27 irregular 1 84 84 68 3 0.297 faster 1 1.556473e+06 1.556477e+06 3.613
27 irregular 1 85 85 67 3 0.139 faster 1 1.556478e+06 1.556482e+06 3.608
27 irregular 1 86 86 53 1 0.186 faster 0 1.556483e+06 1.556485e+06 1.460
27 irregular 1 87 87 52 1 0.118 slower 1 1.556487e+06 1.556488e+06 1.692
27 irregular 1 88 88 67 2.500000e+00 0.326 faster 1 1.556491e+06 1.556494e+06 3.176
27 irregular 1 89 89 67 3 0.336 faster 1 1.556496e+06 1.556499e+06 3.518
27 irregular 1 90 90 66 3 0.124 faster 1 1.556501e+06 1.556505e+06 4.171
27 irregular 1 91 91 66 1.500000e+00 0.161 faster 1 1.556508e+06 1.556511e+06 2.260
27 irregular 1 92 92 55 1.500000e+00 0.287 faster 0 1.556512e+06 1.556514e+06 2.379
27 irregular 1 93 93 54 3 0.584 slower 1 1.556516e+06 1.556520e+06 4.034
27 irregular 1 94 94 54 1.500000e+00 0.401 faster 0 1.556522e+06 1.556525e+06 3.322
27 irregular 1 95 95 53 2.500000e+00 0.484 slower 1 1.556527e+06 1.556530e+06 3.554
27 irregular 1 96 96 54 2.500000e+00 0.161 slower 1 1.556532e+06 1.556536e+06 3.975
27 irregular 1 97 97 66 3 0.131 faster 1 1.556537e+06 1.556541e+06 3.582
27 irregular 1 98 98 65 2.500000e+00 0.580 faster 1 1.556543e+06 1.556546e+06 3.190
27 irregular 1 99 99 55 2 0.381 faster 0 1.556549e+06 1.556552e+06 2.609
27 irregular 1 100 100 54 1 0.311 slower 1 1.556553e+06 1.556555e+06 1.640
27 regular 2 1 101 65 2 0.146 faster 1 1.556620e+06 1.556623e+06 2.914
27 regular 2 2 102 55 2 0.525 slower 1 1.556626e+06 1.556629e+06 3.297
27 regular 2 3 103 56 2 0.239 faster 0 1.556631e+06 1.556634e+06 3.410
27 regular 2 4 104 65 2 0.576 faster 1 1.556637e+06 1.556641e+06 3.109
27 regular 2 5 105 65 2 0.117 faster 1 1.556644e+06 1.556646e+06 2.564
27 regular 2 6 106 64 2 0.533 faster 1 1.556648e+06 1.556651e+06 2.714
27 regular 2 7 107 56 2 0.517 faster 0 1.556653e+06 1.556655e+06 2.822
27 regular 2 8 108 65 2 0.263 faster 1 1.556657e+06 1.556660e+06 2.735
27 regular 2 9 109 64 2 0.209 faster 1 1.556662e+06 1.556664e+06 2.613
27 regular 2 10 110 64 2 0.526 faster 1 1.556667e+06 1.556669e+06 2.500
27 regular 2 11 111 57 2 0.318 faster 0 1.556672e+06 1.556675e+06 2.994
27 regular 2 12 112 64 2 0.217 faster 1 1.556677e+06 1.556680e+06 2.663
27 regular 2 13 113 56 2 0.389 faster 0 1.556682e+06 1.556684e+06 2.506
27 regular 2 14 114 65 2 0.292 faster 1 1.556686e+06 1.556689e+06 2.689
27 regular 2 15 115 64 2 0.600 slower 0 1.556691e+06 1.556694e+06 3.045
27 regular 2 16 116 65 2 0.227 faster 1 1.556695e+06 1.556698e+06 2.552
27 regular 2 17 117 65 2 0.439 faster 1 1.556701e+06 1.556703e+06 2.524
27 regular 2 18 118 56 2 0.358 slower 1 1.556705e+06 1.556708e+06 3.089
27 regular 2 19 119 64 2 0.573 slower 0 1.556711e+06 1.556714e+06 3.141
27 regular 2 20 120 55 2 0.202 faster 0 1.556717e+06 1.556721e+06 3.441
27 regular 2 21 121 54 2 0.450 faster 0 1.556723e+06 1.556727e+06 3.734
27 regular 2 22 122 53 2 0.326 slower 1 1.556728e+06 1.556732e+06 3.677
27 regular 2 23 123 54 2 0.368 faster 0 1.556734e+06 1.556736e+06 2.570
27 regular 2 24 124 53 2 0.258 faster 0 1.556739e+06 1.556743e+06 4.092
27 regular 2 25 125 52 2 0.204 faster 0 1.556745e+06 1.556748e+06 2.625
27 regular 2 26 126 69 2 0.209 faster 1 1.556750e+06 1.556753e+06 2.782
27 regular 2 27 127 69 2 0.471 faster 1 1.556754e+06 1.556757e+06 2.685
27 regular 2 28 128 68 2 0.150 faster 1 1.556759e+06 1.556761e+06 2.717
27 regular 2 29 129 68 2 0.262 faster 1 1.556763e+06 1.556766e+06 2.930
27 regular 2 30 130 67 2 0.321 faster 1 1.556767e+06 1.556770e+06 2.850
27 regular 2 31 131 53 2 0.271 slower 1 1.556803e+06 1.556807e+06 3.519
27 regular 2 32 132 66 2 0.442 faster 1 1.556808e+06 1.556812e+06 3.267
27 regular 2 33 133 54 2 0.413 faster 0 1.556813e+06 1.556817e+06 3.555
27 regular 2 34 134 67 2 0.474 faster 1 1.556818e+06 1.556821e+06 2.558
27 regular 2 35 135 54 2 0.553 faster 0 1.556823e+06 1.556827e+06 4.481
27 regular 2 36 136 53 2 0.586 slower 1 1.556829e+06 1.556832e+06 3.125
27 regular 2 37 137 67 2 0.373 faster 1 1.556834e+06 1.556837e+06 2.892
27 regular 2 38 138 66 2 0.384 faster 1 1.556839e+06 1.556841e+06 2.533
27 regular 2 39 139 54 2 0.139 faster 0 1.556843e+06 1.556846e+06 2.848
27 regular 2 40 140 67 2 0.373 faster 1 1.556847e+06 1.556850e+06 2.643
27 regular 2 41 141 54 2 0.568 faster 0 1.556852e+06 1.556854e+06 2.665
27 regular 2 42 142 67 2 0.338 faster 1 1.556856e+06 1.556859e+06 3.139
27 regular 2 43 143 53 2 0.245 slower 1 1.556860e+06 1.556864e+06 3.794
27 regular 2 44 144 54 2 0.143 faster 0 1.556865e+06 1.556869e+06 3.603
27 regular 2 45 145 67 2 0.477 faster 1 1.556871e+06 1.556874e+06 3.125
27 regular 2 46 146 53 2 0.268 faster 0 1.556875e+06 1.556878e+06 2.597
27 regular 2 47 147 52 2 0.436 faster 0 1.556879e+06 1.556882e+06 2.643
27 regular 2 48 148 69 2 0.272 faster 1 1.556883e+06 1.556886e+06 2.667
27 regular 2 49 149 68 2 0.172 faster 1 1.556888e+06 1.556890e+06 2.619
27 regular 2 50 150 68 2 0.251 faster 1 1.556896e+06 1.556899e+06 3.177
27 regular 2 51 151 67 2 0.108 faster 1 1.556901e+06 1.556905e+06 3.681
27 regular 2 52 152 53 2 0.335 slower 1 1.556906e+06 1.556909e+06 3.243
27 regular 2 53 153 66 2 0.296 faster 1 1.556912e+06 1.556915e+06 2.661
27 regular 2 54 154 54 2 0.402 slower 1 1.556917e+06 1.556920e+06 2.935
27 regular 2 55 155 65 2 0.363 faster 1 1.556921e+06 1.556924e+06 2.550
27 regular 2 56 156 55 2 0.302 faster 0 1.556925e+06 1.556929e+06 3.274
27 regular 2 57 157 66 2 0.119 faster 1 1.556929e+06 1.556933e+06 3.794
27 regular 2 58 158 55 2 0.156 slower 1 1.556935e+06 1.556938e+06 2.973
27 regular 2 59 159 55 2 0.292 slower 1 1.556945e+06 1.556949e+06 3.387
27 regular 2 60 160 56 2 0.274 slower 1 1.556951e+06 1.556954e+06 2.976
27 regular 2 61 161 56 2 0.496 faster 0 1.556956e+06 1.556960e+06 3.416
27 regular 2 62 162 65 2 0.321 faster 1 1.556961e+06 1.556964e+06 2.581
27 regular 2 63 163 56 2 0.246 slower 1 1.556966e+06 1.556969e+06 3.036
27 regular 2 64 164 56 2 0.512 slower 1 1.556971e+06 1.556976e+06 4.756
27 regular 2 65 165 57 2 0.448 faster 0 1.556978e+06 1.556980e+06 2.923
27 regular 2 66 166 64 2 0.126 slower 0 1.556982e+06 1.556985e+06 3.028
27 regular 2 67 167 65 2 0.533 faster 1 1.556987e+06 1.556990e+06 2.753
27 regular 2 68 168 65 2 0.466 none 2 1.556992e+06 1.556997e+06 4.999
27 regular 2 69 169 55 2 0.480 slower 1 1.557001e+06 1.557004e+06 2.850
27 regular 2 70 170 56 2 0.369 slower 1 1.557006e+06 1.557009e+06 2.782
27 regular 2 71 171 56 2 0.426 slower 1 1.557010e+06 1.557014e+06 3.569
27 regular 2 72 172 63 2 0.496 faster 1 1.557017e+06 1.557020e+06 2.942
27 regular 2 73 173 57 2 0.562 faster 0 1.557022e+06 1.557025e+06 3.291
27 regular 2 74 174 64 2 0.553 slower 0 1.557027e+06 1.557031e+06 3.534
27 regular 2 75 175 55 2 0.514 faster 0 1.557032e+06 1.557036e+06 3.318
27 regular 2 76 176 54 2 0.589 faster 0 1.557038e+06 1.557040e+06 2.727
27 regular 2 77 177 67 2 0.447 faster 1 1.557042e+06 1.557045e+06 3.123
27 regular 2 78 178 66 2 0.582 faster 1 1.557047e+06 1.557050e+06 2.622
27 regular 2 79 179 66 2 0.459 faster 1 1.557052e+06 1.557054e+06 2.561
27 regular 2 80 180 55 2 0.501 slower 1 1.557057e+06 1.557060e+06 2.818
27 regular 2 81 181 65 2 0.416 faster 1 1.557061e+06 1.557064e+06 2.581
27 regular 2 82 182 64 2 0.273 faster 1 1.557066e+06 1.557068e+06 2.643
27 regular 2 83 183 56 2 0.346 faster 0 1.557071e+06 1.557074e+06 2.660
27 regular 2 84 184 65 2 0.180 faster 1 1.557076e+06 1.557079e+06 2.684
27 regular 2 85 185 64 2 0.329 faster 1 1.557080e+06 1.557083e+06 2.700
27 regular 2 86 186 64 2 0.187 faster 1 1.557084e+06 1.557087e+06 3.058
27 regular 2 87 187 57 2 0.287 slower 1 1.557089e+06 1.557092e+06 2.733
27 regular 2 88 188 57 2 0.293 slower 1 1.557094e+06 1.557097e+06 2.861
27 regular 2 89 189 62 2 0.406 faster 1 1.557099e+06 1.557102e+06 2.844
27 regular 2 90 190 58 2 0.102 faster 0 1.557104e+06 1.557108e+06 3.312
27 regular 2 91 191 57 2 0.382 faster 0 1.557109e+06 1.557112e+06 2.789
27 regular 2 92 192 64 2 0.276 faster 1 1.557113e+06 1.557116e+06 2.564
27 regular 2 93 193 57 2 0.446 faster 0 1.557118e+06 1.557120e+06 2.538
27 regular 2 94 194 56 2 0.235 faster 0 1.557122e+06 1.557125e+06 3.175
27 regular 2 95 195 55 2 0.238 slower 1 1.557126e+06 1.557129e+06 2.729
27 regular 2 96 196 55 2 0.383 faster 0 1.557131e+06 1.557134e+06 3.090
27 regular 2 97 197 66 2 0.521 slower 0 1.557136e+06 1.557138e+06 2.940
27 regular 2 98 198 67 2 0.487 faster 1 1.557140e+06 1.557143e+06 3.208
27 regular 2 99 199 54 2 0.364 slower 1 1.557145e+06 1.557148e+06 3.034
27 regular 2 100 200 54 2 0.498 slower 1 1.557151e+06 1.557154e+06 2.864
27 irregular 3 1 201 65 2 0.521 faster 1 1.557279e+06 1.557283e+06 3.793
27 irregular 3 2 202 55 1 0.598 slower 1 1.557284e+06 1.557286e+06 1.692
27 irregular 3 3 203 56 1 0.368 faster 0 1.557287e+06 1.557289e+06 1.495
27 irregular 3 4 204 65 2 0.418 slower 0 1.557290e+06 1.557293e+06 2.589
27 irregular 3 5 205 54 1.500000e+00 0.541 faster 0 1.557295e+06 1.557297e+06 1.933
27 irregular 3 6 206 67 2 0.118 faster 1 1.557298e+06 1.557301e+06 2.520
27 irregular 3 7 207 67 2 0.438 faster 1 1.557302e+06 1.557305e+06 2.660
27 irregular 3 8 208 54 1.500000e+00 0.129 slower 1 1.557307e+06 1.557310e+06 2.506
27 irregular 3 9 209 66 3 0.143 faster 1 1.557311e+06 1.557315e+06 3.657
27 irregular 3 10 210 65 1.500000e+00 0.177 faster 1 1.557318e+06 1.557320e+06 2.217
27 irregular 3 11 211 65 2 0.495 faster 1 1.557323e+06 1.557326e+06 2.648
27 irregular 3 12 212 56 2.500000e+00 0.575 slower 1 1.557327e+06 1.557331e+06 3.344
27 irregular 3 13 213 56 1 0.349 faster 0 1.557332e+06 1.557334e+06 1.598
27 irregular 3 14 214 55 3 0.230 slower 1 1.557335e+06 1.557340e+06 4.135
27 irregular 3 15 215 56 2.500000e+00 0.596 slower 1 1.557342e+06 1.557345e+06 3.218
27 irregular 3 16 216 56 2 0.102 faster 0 1.557347e+06 1.557350e+06 3.749
27 irregular 3 17 217 65 3 0.340 faster 1 1.557353e+06 1.557357e+06 4.409
27 irregular 3 18 218 56 1.500000e+00 0.436 slower 1 1.557360e+06 1.557362e+06 2.518
27 irregular 3 19 219 56 1 0.296 slower 1 1.557364e+06 1.557366e+06 2.012
27 irregular 3 20 220 57 3 0.210 slower 1 1.557367e+06 1.557371e+06 3.713
27 irregular 3 21 221 57 2 0.418 slower 1 1.557372e+06 1.557375e+06 2.928
27 irregular 3 22 222 62 2.500000e+00 0.430 faster 1 1.557377e+06 1.557380e+06 3.661
27 irregular 3 23 223 58 2.500000e+00 0.408 faster 0 1.557382e+06 1.557385e+06 3.248
27 irregular 3 24 224 57 3 0.132 faster 0 1.557386e+06 1.557390e+06 3.955
27 irregular 3 25 225 64 1 0.496 faster 1 1.557392e+06 1.557393e+06 1.853
27 irregular 3 26 226 63 1.500000e+00 0.389 faster 1 1.557398e+06 1.557400e+06 2.256
27 irregular 3 27 227 57 2.500000e+00 0.168 faster 0 1.557401e+06 1.557404e+06 3.259
27 irregular 3 28 228 56 2 0.597 faster 0 1.557407e+06 1.557410e+06 2.651
27 irregular 3 29 229 65 2.500000e+00 0.190 faster 1 1.557411e+06 1.557416e+06 4.336
27 irregular 3 30 230 64 2 0.524 slower 0 1.557417e+06 1.557420e+06 2.879
27 irregular 3 31 231 55 1 0.485 slower 1 1.557423e+06 1.557425e+06 1.793
27 irregular 3 32 232 55 3 0.248 faster 0 1.557427e+06 1.557431e+06 4.376
27 irregular 3 33 233 66 1 0.220 slower 0 1.557435e+06 1.557438e+06 3.098
27 irregular 3 34 234 67 2.500000e+00 0.113 faster 1 1.557441e+06 1.557445e+06 3.420
27 irregular 3 35 235 66 1.500000e+00 0.123 faster 1 1.557448e+06 1.557451e+06 2.325
27 irregular 3 36 236 66 1.500000e+00 0.501 faster 1 1.557453e+06 1.557455e+06 2.040
27 irregular 3 37 237 55 2.500000e+00 0.217 slower 1 1.557456e+06 1.557460e+06 3.325
27 irregular 3 38 238 65 1.500000e+00 0.238 faster 1 1.557461e+06 1.557463e+06 2.157
27 irregular 3 39 239 56 2.500000e+00 0.378 slower 1 1.557465e+06 1.557468e+06 3.048
27 irregular 3 40 240 56 1.500000e+00 0.130 slower 1 1.557469e+06 1.557472e+06 2.336
27 irregular 3 41 241 63 1.500000e+00 0.196 faster 1 1.557473e+06 1.557475e+06 2.051
27 irregular 3 42 242 57 2.500000e+00 0.519 slower 1 1.557477e+06 1.557480e+06 3.332
27 irregular 3 43 243 58 3 0.346 faster 0 1.557483e+06 1.557487e+06 4.101
27 irregular 3 44 244 63 2.500000e+00 0.579 faster 1 1.557493e+06 1.557496e+06 3.326
27 irregular 3 45 245 63 1 0.111 faster 1 1.557498e+06 1.557500e+06 1.797
27 irregular 3 46 246 62 1.500000e+00 0.584 faster 1 1.557502e+06 1.557503e+06 1.913
27 irregular 3 47 247 58 3 0.379 slower 1 1.557506e+06 1.557510e+06 3.867
27 irregular 3 48 248 61 2.500000e+00 0.123 faster 1 1.557513e+06 1.557517e+06 4.010
27 irregular 3 49 249 59 1.500000e+00 0.397 slower 1 1.557519e+06 1.557522e+06 3.204
27 irregular 3 50 250 59 1.500000e+00 0.527 faster 0 1.557525e+06 1.557527e+06 1.979
27 irregular 3 51 251 58 1 0.179 faster 0 1.557528e+06 1.557530e+06 1.436
27 irregular 3 52 252 63 1 0.335 faster 1 1.557531e+06 1.557533e+06 1.535
27 irregular 3 53 253 63 2.500000e+00 0.274 faster 1 1.557534e+06 1.557537e+06 2.988
27 irregular 3 54 254 62 2.500000e+00 0.231 slower 0 1.557539e+06 1.557542e+06 3.454
27 irregular 3 55 255 63 1 0.420 faster 1 1.557544e+06 1.557546e+06 1.684
27 irregular 3 56 256 57 2.500000e+00 0.341 faster 0 1.557548e+06 1.557552e+06 3.795
27 irregular 3 57 257 56 2.500000e+00 0.507 slower 1 1.557554e+06 1.557557e+06 3.729
27 irregular 3 58 258 63 1 0.148 faster 1 1.557560e+06 1.557562e+06 2.045
27 irregular 3 59 259 63 2 0.258 slower 0 1.557565e+06 1.557569e+06 4.504
27 irregular 3 60 260 56 1.500000e+00 0.107 faster 0 1.557573e+06 1.557575e+06 2.165
27 irregular 3 61 261 65 1 0.276 slower 0 1.557579e+06 1.557582e+06 2.694
27 irregular 3 62 262 66 3 0.136 slower 0 1.557584e+06 1.557588e+06 3.979
27 irregular 3 63 263 53 2 0.450 slower 1 1.557593e+06 1.557596e+06 2.948
27 irregular 3 64 264 66 2 0.290 slower 0 1.557598e+06 1.557601e+06 2.820
27 irregular 3 65 265 53 3 0.111 slower 1 1.557602e+06 1.557605e+06 3.741
27 irregular 3 66 266 53 3 0.532 slower 1 1.557607e+06 1.557612e+06 4.524
27 irregular 3 67 267 66 1 0.303 slower 0 1.557616e+06 1.557618e+06 1.906
27 irregular 3 68 268 53 1 0.393 slower 1 1.557623e+06 1.557625e+06 1.650
27 irregular 3 69 269 53 2 0.117 faster 0 1.557627e+06 1.557630e+06 3.197
27 irregular 3 70 270 52 2 0.167 slower 1 1.557634e+06 1.557637e+06 2.807
27 irregular 3 71 271 53 2 0.435 faster 0 1.557640e+06 1.557643e+06 3.418
27 irregular 3 72 272 68 3 0.429 faster 1 1.557645e+06 1.557649e+06 4.233
27 irregular 3 73 273 68 3 0.261 faster 1 1.557651e+06 1.557655e+06 4.270
27 irregular 3 74 274 67 3 0.278 faster 1 1.557657e+06 1.557661e+06 3.916
27 irregular 3 75 275 67 3 0.185 none 2 1.557664e+06 1.557670e+06 5.999
27 irregular 3 76 276 53 3 0.270 slower 1 1.557671e+06 1.557675e+06 3.993
27 irregular 3 77 277 66 2 0.309 faster 1 1.557678e+06 1.557681e+06 3.008
27 irregular 3 78 278 54 3 0.470 faster 0 1.557683e+06 1.557687e+06 3.750
27 irregular 3 79 279 67 2.500000e+00 0.129 faster 1 1.557688e+06 1.557692e+06 3.394
27 irregular 3 80 280 66 1 0.111 faster 1 1.557693e+06 1.557695e+06 1.938
27 irregular 3 81 281 66 1 0.379 faster 1 1.557697e+06 1.557699e+06 1.892
27 irregular 3 82 282 55 2 0.547 faster 0 1.557702e+06 1.557705e+06 2.871
27 irregular 3 83 283 66 3 0.451 faster 1 1.557706e+06 1.557709e+06 3.607
27 irregular 3 84 284 54 2.500000e+00 0.175 faster 0 1.557712e+06 1.557715e+06 3.062
27 irregular 3 85 285 67 2 0.497 faster 1 1.557717e+06 1.557721e+06 3.491
27 irregular 3 86 286 54 1 0.141 faster 0 1.557722e+06 1.557725e+06 2.302
27 irregular 3 87 287 67 1.500000e+00 0.429 faster 1 1.557726e+06 1.557728e+06 2.202
27 irregular 3 88 288 67 3 0.147 faster 1 1.557729e+06 1.557733e+06 3.830
27 irregular 3 89 289 54 1.500000e+00 0.364 faster 0 1.557735e+06 1.557738e+06 2.796
27 irregular 3 90 290 53 1 0.241 faster 0 1.557739e+06 1.557741e+06 1.584
27 irregular 3 91 291 68 2.500000e+00 0.190 faster 1 1.557742e+06 1.557745e+06 3.478
27 irregular 3 92 292 68 3 0.575 faster 1 1.557748e+06 1.557752e+06 3.746
27 irregular 3 93 293 67 1.500000e+00 0.113 faster 1 1.557753e+06 1.557755e+06 2.429
27 irregular 3 94 294 53 2 0.204 faster 0 1.557757e+06 1.557760e+06 2.629
27 irregular 3 95 295 52 1.500000e+00 0.286 slower 1 1.557763e+06 1.557765e+06 2.394
27 irregular 3 96 296 67 1.500000e+00 0.210 slower 0 1.557767e+06 1.557769e+06 2.222
27 irregular 3 97 297 52 1.500000e+00 0.495 slower 1 1.557771e+06 1.557773e+06 2.291
27 irregular 3 98 298 52 2 0.228 slower 1 1.557775e+06 1.557778e+06 2.906
27 irregular 3 99 299 53 1 0.512 slower 1 1.557779e+06 1.557781e+06 1.944
27 irregular 3 100 300 67 2.500000e+00 0.260 faster 1 1.557784e+06 1.557787e+06 3.182
27 regular 4 1 301 66 1 0.393 faster 1 1.557852e+06 1.557854e+06 1.844
27 regular 4 2 302 66 1 0.547 faster 1 1.557855e+06 1.557857e+06 1.535
27 regular 4 3 303 55 1 0.504 faster 0 1.557858e+06 1.557860e+06 1.434
27 regular 4 4 304 66 1 0.389 faster 1 1.557862e+06 1.557863e+06 1.466
27 regular 4 5 305 66 1 0.500 faster 1 1.557865e+06 1.557867e+06 1.742
27 regular 4 6 306 55 1 0.463 faster 0 1.557869e+06 1.557870e+06 1.470
27 regular 4 7 307 66 1 0.581 faster 1 1.557872e+06 1.557873e+06 1.394
27 regular 4 8 308 66 1 0.593 faster 1 1.557875e+06 1.557877e+06 1.470
27 regular 4 9 309 65 1 0.318 faster 1 1.557878e+06 1.557880e+06 1.839
27 regular 4 10 310 65 1 0.233 faster 1 1.557881e+06 1.557883e+06 1.686
27 regular 4 11 311 56 1 0.324 faster 0 1.557884e+06 1.557886e+06 1.534
27 regular 4 12 312 65 1 0.545 faster 1 1.557887e+06 1.557889e+06 1.754
27 regular 4 13 313 65 1 0.228 faster 1 1.557890e+06 1.557892e+06 1.555
27 regular 4 14 314 56 1 0.211 faster 0 1.557893e+06 1.557894e+06 1.655
27 regular 4 15 315 55 1 0.279 faster 0 1.557896e+06 1.557898e+06 2.055
27 regular 4 16 316 54 1 0.142 faster 0 1.557899e+06 1.557901e+06 1.557
27 regular 4 17 317 53 1 0.528 slower 1 1.557903e+06 1.557905e+06 1.913
27 regular 4 18 318 53 1 0.413 slower 1 1.557907e+06 1.557908e+06 1.731
27 regular 4 19 319 54 1 0.517 slower 1 1.557910e+06 1.557911e+06 1.571
27 regular 4 20 320 66 1 0.404 faster 1 1.557914e+06 1.557915e+06 1.315
27 regular 4 21 321 55 1 0.325 faster 0 1.557917e+06 1.557918e+06 1.392
27 regular 4 22 322 54 1 0.346 slower 1 1.557920e+06 1.557922e+06 1.544
27 regular 4 23 323 54 1 0.397 slower 1 1.557923e+06 1.557925e+06 1.383
27 regular 4 24 324 55 1 0.344 faster 0 1.557926e+06 1.557928e+06 1.500
27 regular 4 25 325 66 1 0.138 slower 0 1.557929e+06 1.557931e+06 1.322
27 regular 4 26 326 53 1 0.449 faster 0 1.557932e+06 1.557934e+06 1.589
27 regular 4 27 327 68 1 0.111 faster 1 1.557936e+06 1.557937e+06 1.578
27 regular 4 28 328 68 1 0.288 faster 1 1.557939e+06 1.557940e+06 1.622
27 regular 4 29 329 67 1 0.325 slower 0 1.557943e+06 1.557945e+06 1.711
27 regular 4 30 330 52 1 0.584 slower 1 1.557947e+06 1.557949e+06 2.004
27 regular 4 31 331 68 1 0.354 slower 0 1.557952e+06 1.557954e+06 2.403
27 regular 4 32 332 69 1 0.192 faster 1 1.557956e+06 1.557958e+06 1.800
27 regular 4 33 333 52 1 0.481 slower 1 1.557961e+06 1.557963e+06 2.105
27 regular 4 34 334 68 1 0.425 faster 1 1.557964e+06 1.557967e+06 2.998
27 regular 4 35 335 67 1 0.204 slower 0 1.557969e+06 1.557970e+06 1.694
27 regular 4 36 336 68 1 0.123 faster 1 1.557972e+06 1.557974e+06 1.726
27 regular 4 37 337 52 1 0.218 slower 1 1.557975e+06 1.557977e+06 2.395
27 regular 4 38 338 53 1 0.545 slower 1 1.557979e+06 1.557982e+06 2.575
27 regular 4 39 339 53 1 0.389 slower 1 1.557984e+06 1.557985e+06 1.776
27 regular 4 40 340 54 1 0.312 faster 0 1.557987e+06 1.557988e+06 1.705
27 regular 4 41 341 53 1 0.493 slower 1 1.557990e+06 1.557992e+06 2.052
27 regular 4 42 342 67 1 0.266 faster 1 1.557993e+06 1.557995e+06 1.686
27 regular 4 43 343 54 1 0.136 faster 0 1.557996e+06 1.557998e+06 1.579
27 regular 4 44 344 53 1 0.582 faster 0 1.557999e+06 1.558001e+06 1.763
27 regular 4 45 345 52 1 0.236 faster 0 1.558002e+06 1.558004e+06 2.322
27 regular 4 46 346 51 1 0.364 slower 1 1.558005e+06 1.558007e+06 1.964
27 regular 4 47 347 51 1 0.142 slower 1 1.558009e+06 1.558011e+06 2.030
27 regular 4 48 348 52 1 0.288 slower 1 1.558012e+06 1.558014e+06 1.392
27 regular 4 49 349 68 1 0.239 faster 1 1.558015e+06 1.558017e+06 2.024
27 regular 4 50 350 53 1 0.244 slower 1 1.558018e+06 1.558020e+06 1.761
27 regular 4 51 351 67 1 0.251 slower 0 1.558022e+06 1.558024e+06 2.018
27 regular 4 52 352 68 1 0.105 none 2 1.558025e+06 1.558029e+06 3.999
27 regular 4 53 353 52 1 0.396 slower 1 1.558030e+06 1.558032e+06 1.688
27 regular 4 54 354 53 1 0.486 slower 1 1.558034e+06 1.558035e+06 1.628
27 regular 4 55 355 53 1 0.290 slower 1 1.558036e+06 1.558038e+06 1.618
27 regular 4 56 356 66 1 0.201 slower 0 1.558039e+06 1.558041e+06 1.713
27 regular 4 57 357 67 1 0.327 faster 1 1.558043e+06 1.558044e+06 1.428
27 regular 4 58 358 53 1 0.314 slower 1 1.558046e+06 1.558049e+06 2.702
27 regular 4 59 359 54 1 0.367 faster 0 1.558050e+06 1.558053e+06 2.670
27 regular 4 60 360 53 1 0.314 slower 1 1.558054e+06 1.558056e+06 1.875
27 regular 4 61 361 67 1 0.113 faster 1 1.558057e+06 1.558060e+06 2.469
27 regular 4 62 362 66 1 0.155 faster 1 1.558061e+06 1.558063e+06 2.057
27 regular 4 63 363 54 1 0.226 slower 1 1.558064e+06 1.558066e+06 1.853
27 regular 4 64 364 65 1 0.113 faster 1 1.558072e+06 1.558074e+06 2.282
27 regular 4 65 365 55 1 0.150 slower 1 1.558075e+06 1.558078e+06 2.818
27 regular 4 66 366 64 1 0.257 faster 1 1.558083e+06 1.558085e+06 2.113
27 regular 4 67 367 56 1 0.580 slower 1 1.558087e+06 1.558089e+06 1.816
27 regular 4 68 368 57 1 0.368 slower 1 1.558090e+06 1.558093e+06 2.982
27 regular 4 69 369 57 1 0.401 slower 1 1.558095e+06 1.558098e+06 2.969
27 regular 4 70 370 62 1 0.425 faster 1 1.558099e+06 1.558100e+06 1.603
27 regular 4 71 371 58 1 0.340 faster 0 1.558102e+06 1.558105e+06 2.368
27 regular 4 72 372 57 1 0.532 faster 0 1.558107e+06 1.558110e+06 3.345
27 regular 4 73 373 64 1 0.420 faster 1 1.558112e+06 1.558114e+06 2.499
27 regular 4 74 374 57 1 0.599 slower 1 1.558118e+06 1.558121e+06 2.972
27 regular 4 75 375 63 1 0.499 none 2 1.558122e+06 1.558126e+06 4.000
27 regular 4 76 376 57 1 0.595 slower 1 1.558129e+06 1.558132e+06 2.638
27 regular 4 77 377 62 1 0.234 faster 1 1.558132e+06 1.558134e+06 1.687
27 regular 4 78 378 58 1 0.166 faster 0 1.558135e+06 1.558138e+06 2.127
27 regular 4 79 379 57 1 0.460 faster 0 1.558139e+06 1.558141e+06 1.881
27 regular 4 80 380 64 1 0.253 slower 0 1.558142e+06 1.558144e+06 1.942
27 regular 4 81 381 65 1 0.387 faster 1 1.558146e+06 1.558147e+06 1.588
27 regular 4 82 382 56 1 0.182 slower 1 1.558149e+06 1.558152e+06 2.649
27 regular 4 83 383 64 1 0.226 slower 0 1.558153e+06 1.558155e+06 2.362
27 regular 4 84 384 65 1 0.266 faster 1 1.558157e+06 1.558159e+06 1.769
27 regular 4 85 385 64 1 0.338 faster 1 1.558160e+06 1.558162e+06 1.600
27 regular 4 86 386 56 1 0.430 faster 0 1.558164e+06 1.558166e+06 1.596
27 regular 4 87 387 65 1 0.308 faster 1 1.558167e+06 1.558169e+06 1.570
27 regular 4 88 388 64 1 0.271 faster 1 1.558170e+06 1.558172e+06 1.516
27 regular 4 89 389 64 1 0.226 faster 1 1.558173e+06 1.558175e+06 1.515
27 regular 4 90 390 57 1 0.102 faster 0 1.558177e+06 1.558179e+06 1.900
27 regular 4 91 391 64 1 0.275 slower 0 1.558183e+06 1.558185e+06 2.057
27 regular 4 92 392 65 1 0.389 faster 1 1.558187e+06 1.558189e+06 1.924
27 regular 4 93 393 65 1 0.434 slower 0 1.558192e+06 1.558193e+06 1.666
27 regular 4 94 394 54 1 0.588 slower 1 1.558195e+06 1.558197e+06 1.796
27 regular 4 95 395 65 1 0.265 slower 0 1.558199e+06 1.558201e+06 1.544
27 regular 4 96 396 66 1 0.571 slower 0 1.558203e+06 1.558204e+06 1.652
27 regular 4 97 397 53 1 0.141 faster 0 1.558206e+06 1.558208e+06 1.936
27 regular 4 98 398 68 1 0.396 faster 1 1.558209e+06 1.558211e+06 1.584
27 regular 4 99 399 68 1 0.214 faster 1 1.558213e+06 1.558214e+06 1.540
27 regular 4 100 400 67 1 0.585 faster 1 1.558216e+06 1.558218e+06 1.559
27 irregular 5 1 401 67 1 0.396 slower 0 1.558257e+06 1.558259e+06 1.754
27 irregular 5 2 402 68 2 0.358 slower 0 1.558261e+06 1.558265e+06 3.392
27 irregular 5 3 403 69 1 0.591 faster 1 1.558267e+06 1.558269e+06 1.997
27 irregular 5 4 404 52 2 0.248 slower 1 1.558270e+06 1.558273e+06 2.809
27 irregular 5 5 405 68 2.500000e+00 0.216 slower 0 1.558274e+06 1.558278e+06 3.843
27 irregular 5 6 406 51 3 0.247 slower 1 1.558279e+06 1.558282e+06 3.599
27 irregular 5 7 407 52 1 0.156 slower 1 1.558284e+06 1.558285e+06 1.767
27 irregular 5 8 408 52 1 0.366 faster 0 1.558287e+06 1.558288e+06 1.374
27 irregular 5 9 409 51 1 0.165 faster 0 1.558290e+06 1.558292e+06 1.651
27 irregular 5 10 410 50 2 0.596 faster 0 1.558295e+06 1.558298e+06 3.371
27 irregular 5 11 411 71 1 0.428 faster 1 1.558300e+06 1.558302e+06 1.992
27 irregular 5 12 412 50 2 0.538 slower 1 1.558304e+06 1.558307e+06 2.634
27 irregular 5 13 413 50 1 0.195 slower 1 1.558309e+06 1.558311e+06 1.984
27 irregular 5 14 414 69 3 0.401 slower 0 1.558313e+06 1.558317e+06 3.851
27 irregular 5 15 415 50 1.500000e+00 0.106 slower 1 1.558320e+06 1.558323e+06 2.763
27 irregular 5 16 416 50 2.500000e+00 0.518 slower 1 1.558325e+06 1.558328e+06 3.032
27 irregular 5 17 417 69 3 0.498 slower 0 1.558330e+06 1.558334e+06 3.902
27 irregular 5 18 418 50 3 0.123 faster 0 1.558335e+06 1.558339e+06 4.245
27 irregular 5 19 419 49 1.500000e+00 0.414 slower 1 1.558342e+06 1.558345e+06 2.356
27 irregular 5 20 420 49 1.500000e+00 0.400 slower 1 1.558347e+06 1.558350e+06 3.365
27 irregular 5 21 421 70 1.500000e+00 0.402 faster 1 1.558352e+06 1.558354e+06 2.575
27 irregular 5 22 422 50 1 0.257 slower 1 1.558356e+06 1.558359e+06 3.050
27 irregular 5 23 423 51 1.500000e+00 0.133 slower 1 1.558360e+06 1.558362e+06 2.379
27 irregular 5 24 424 69 2.500000e+00 0.586 slower 0 1.558364e+06 1.558368e+06 3.684
27 irregular 5 25 425 70 3 0.279 faster 1 1.558370e+06 1.558374e+06 4.397
27 irregular 5 26 426 51 2 0.504 slower 1 1.558376e+06 1.558379e+06 3.293
27 irregular 5 27 427 51 2.500000e+00 0.568 slower 1 1.558381e+06 1.558384e+06 3.350
27 irregular 5 28 428 52 3 0.284 slower 1 1.558386e+06 1.558390e+06 3.680
27 irregular 5 29 429 52 2.500000e+00 0.208 faster 0 1.558391e+06 1.558395e+06 3.226
27 irregular 5 30 430 69 2.500000e+00 0.488 slower 0 1.558396e+06 1.558400e+06 3.764
27 irregular 5 31 431 50 3 0.260 slower 1 1.558404e+06 1.558408e+06 3.834
27 irregular 5 32 432 69 2.500000e+00 0.598 slower 0 1.558410e+06 1.558414e+06 3.507
27 irregular 5 33 433 70 1 0.448 faster 1 1.558416e+06 1.558419e+06 3.437
27 irregular 5 34 434 50 2.500000e+00 0.267 slower 1 1.558420e+06 1.558424e+06 3.228
27 irregular 5 35 435 69 1 0.536 slower 0 1.558426e+06 1.558428e+06 1.821
27 irregular 5 36 436 70 1.500000e+00 0.308 slower 0 1.558429e+06 1.558432e+06 2.864
27 irregular 5 37 437 49 2 0.489 slower 1 1.558433e+06 1.558435e+06 2.632
27 irregular 5 38 438 49 1.500000e+00 0.462 slower 1 1.558438e+06 1.558441e+06 2.760
27 irregular 5 39 439 70 2 0.365 faster 1 1.558443e+06 1.558446e+06 2.654
27 irregular 5 40 440 50 3 0.242 slower 1 1.558448e+06 1.558451e+06 3.694
27 irregular 5 41 441 69 2 0.164 slower 0 1.558454e+06 1.558458e+06 4.419
27 irregular 5 42 442 70 2 0.560 slower 0 1.558460e+06 1.558464e+06 3.387
27 irregular 5 43 443 71 3 0.309 slower 0 1.558465e+06 1.558469e+06 4.519
27 irregular 5 44 444 72 2.500000e+00 0.505 slower 0 1.558470e+06 1.558474e+06 3.823
27 irregular 5 45 445 47 2.500000e+00 0.558 slower 1 1.558476e+06 1.558479e+06 3.314
27 irregular 5 46 446 73 2 0.263 slower 0 1.558482e+06 1.558485e+06 3.357
27 irregular 5 47 447 46 2 0.156 slower 1 1.558486e+06 1.558489e+06 2.649
27 irregular 5 48 448 47 2 0.463 slower 1 1.558491e+06 1.558494e+06 3.248
27 irregular 5 49 449 73 3 0.143 faster 1 1.558496e+06 1.558499e+06 3.463
27 irregular 5 50 450 48 3 0.391 slower 1 1.558502e+06 1.558506e+06 3.648
27 irregular 5 51 451 48 3 0.473 slower 1 1.558508e+06 1.558512e+06 3.625
27 irregular 5 52 452 49 2.500000e+00 0.468 slower 1 1.558517e+06 1.558520e+06 3.406
27 irregular 5 53 453 49 1 0.554 slower 1 1.558529e+06 1.558530e+06 1.830
27 irregular 5 54 454 50 1.500000e+00 0.165 none 2 1.558533e+06 1.558537e+06 4.500
27 irregular 5 55 455 70 2.500000e+00 0.231 faster 1 1.558538e+06 1.558542e+06 3.776
27 irregular 5 56 456 70 2 0.317 faster 1 1.558543e+06 1.558546e+06 3.019
27 irregular 5 57 457 69 2.500000e+00 0.523 slower 0 1.558550e+06 1.558553e+06 3.399
27 irregular 5 58 458 70 2 0.261 faster 1 1.558556e+06 1.558559e+06 3.191
27 irregular 5 59 459 50 1.500000e+00 0.493 slower 1 1.558561e+06 1.558563e+06 2.285
27 irregular 5 60 460 69 2 0.571 slower 0 1.558565e+06 1.558569e+06 3.748
27 irregular 5 61 461 70 1.500000e+00 0.505 faster 1 1.558571e+06 1.558574e+06 3.226
27 irregular 5 62 462 70 2 0.528 faster 1 1.558576e+06 1.558579e+06 2.708
27 irregular 5 63 463 51 3 0.478 slower 1 1.558581e+06 1.558585e+06 4.425
27 irregular 5 64 464 51 2 0.337 slower 1 1.558587e+06 1.558591e+06 3.230
27 irregular 5 65 465 68 1 0.457 slower 0 1.558592e+06 1.558595e+06 2.881
27 irregular 5 66 466 69 1.500000e+00 0.477 slower 0 1.558599e+06 1.558601e+06 2.355
27 irregular 5 67 467 70 3 0.405 slower 0 1.558603e+06 1.558608e+06 4.463
27 irregular 5 68 468 49 3 0.164 slower 1 1.558609e+06 1.558613e+06 3.604
27 irregular 5 69 469 71 1.500000e+00 0.280 faster 1 1.558614e+06 1.558616e+06 2.345
27 irregular 5 70 470 70 1 0.252 faster 1 1.558617e+06 1.558619e+06 1.785
27 irregular 5 71 471 50 1 0.541 slower 1 1.558620e+06 1.558622e+06 1.581
27 irregular 5 72 472 51 1 0.237 slower 1 1.558623e+06 1.558625e+06 1.627
27 irregular 5 73 473 51 3 0.198 slower 1 1.558627e+06 1.558630e+06 3.708
27 irregular 5 74 474 68 1.500000e+00 0.385 slower 0 1.558633e+06 1.558636e+06 2.492
27 irregular 5 75 475 51 2 0.558 slower 1 1.558637e+06 1.558640e+06 3.020
27 irregular 5 76 476 69 1.500000e+00 0.473 faster 1 1.558642e+06 1.558644e+06 2.269
27 irregular 5 77 477 52 1 0.316 slower 1 1.558646e+06 1.558648e+06 1.666
27 irregular 5 78 478 52 2.500000e+00 0.245 slower 1 1.558649e+06 1.558652e+06 3.292
27 irregular 5 79 479 53 1.500000e+00 0.323 slower 1 1.558654e+06 1.558656e+06 2.517
27 irregular 5 80 480 67 3 0.403 faster 1 1.558658e+06 1.558662e+06 3.569
27 irregular 5 81 481 54 1.500000e+00 0.276 faster 0 1.558664e+06 1.558667e+06 2.518
27 irregular 5 82 482 53 2.500000e+00 0.438 faster 0 1.558668e+06 1.558671e+06 3.043
27 irregular 5 83 483 52 1 0.201 slower 1 1.558672e+06 1.558674e+06 1.718
27 irregular 5 84 484 52 1.500000e+00 0.152 slower 1 1.558675e+06 1.558677e+06 2.257
27 irregular 5 85 485 67 2 0.187 faster 1 1.558681e+06 1.558685e+06 3.981
27 irregular 5 86 486 53 2.500000e+00 0.422 slower 1 1.558687e+06 1.558690e+06 3.153
27 irregular 5 87 487 66 3 0.545 faster 1 1.558693e+06 1.558696e+06 3.818
27 irregular 5 88 488 66 1 0.322 slower 0 1.558699e+06 1.558701e+06 1.879
27 irregular 5 89 489 67 1 0.579 slower 0 1.558703e+06 1.558705e+06 1.754
27 irregular 5 90 490 52 2.500000e+00 0.327 slower 1 1.558707e+06 1.558710e+06 3.443
27 irregular 5 91 491 67 1 0.411 slower 0 1.558713e+06 1.558715e+06 1.837
27 irregular 5 92 492 68 3 0.291 slower 0 1.558716e+06 1.558720e+06 3.775
27 irregular 5 93 493 69 2.500000e+00 0.389 faster 1 1.558723e+06 1.558726e+06 3.276
27 irregular 5 94 494 69 1.500000e+00 0.300 slower 0 1.558732e+06 1.558735e+06 2.356
27 irregular 5 95 495 70 2.500000e+00 0.170 faster 1 1.558740e+06 1.558743e+06 3.620
27 irregular 5 96 496 69 2.500000e+00 0.457 slower 0 1.558747e+06 1.558751e+06 3.249
27 irregular 5 97 497 70 1.500000e+00 0.514 faster 1 1.558753e+06 1.558756e+06 2.642
27 irregular 5 98 498 70 3 0.498 faster 1 1.558758e+06 1.558762e+06 4.346
27 irregular 5 99 499 69 1.500000e+00 0.218 slower 0 1.558764e+06 1.558766e+06 2.566
27 irregular 5 100 500 50 2 0.424 slower 1 1.558768e+06 1.558771e+06 2.785
27 regular 6 1 501 49 1.500000e+00 0.433 faster 0 1.821015e+06 1.821018e+06 2.469
27 regular 6 2 502 47 1.500000e+00 0.306 faster 0 1.821019e+06 1.821022e+06 2.605
27 regular 6 3 503 75 1.500000e+00 0.584 faster 1 1.821023e+06 1.821025e+06 1.905
27 regular 6 4 504 45 1.500000e+00 0.473 slower 1 1.821027e+06 1.821029e+06 1.990
27 regular 6 5 505 47 1.500000e+00 0.410 faster 0 1.821031e+06 1.821033e+06 2.127
27 regular 6 6 506 75 1.500000e+00 0.156 faster 1 1.821034e+06 1.821036e+06 2.009
27 regular 6 7 507 75 1.500000e+00 0.183 faster 1 1.821038e+06 1.821040e+06 2.409
27 regular 6 8 508 47 1.500000e+00 0.481 slower 1 1.821041e+06 1.821043e+06 2.237
27 regular 6 9 509 73 1.500000e+00 0.483 faster 1 1.821045e+06 1.821047e+06 2.211
27 regular 6 10 510 72 1.500000e+00 0.560 faster 1 1.821049e+06 1.821051e+06 1.955
27 regular 6 11 511 72 1.500000e+00 0.118 faster 1 1.821052e+06 1.821054e+06 1.755
27 regular 6 12 512 49 1.500000e+00 0.586 faster 0 1.821056e+06 1.821059e+06 2.751
27 regular 6 13 513 72 1.500000e+00 0.220 faster 1 1.821060e+06 1.821062e+06 1.934
27 regular 6 14 514 48 1.500000e+00 0.162 slower 1 1.821064e+06 1.821066e+06 2.081
27 regular 6 15 515 71 1.500000e+00 0.165 faster 1 1.821067e+06 1.821069e+06 1.961
27 regular 6 16 516 71 1.500000e+00 0.505 faster 1 1.821071e+06 1.821073e+06 1.875
27 regular 6 17 517 70 1.500000e+00 0.204 faster 1 1.821074e+06 1.821077e+06 2.569
27 regular 6 18 518 70 1.500000e+00 0.122 faster 1 1.821078e+06 1.821080e+06 1.944
27 regular 6 19 519 51 1.500000e+00 0.584 slower 1 1.821082e+06 1.821084e+06 2.135
27 regular 6 20 520 69 1.500000e+00 0.410 faster 1 1.821086e+06 1.821088e+06 1.882
27 regular 6 21 521 68 1.500000e+00 0.257 faster 1 1.821090e+06 1.821092e+06 1.857
27 regular 6 22 522 52 1.500000e+00 0.325 faster 0 1.821094e+06 1.821097e+06 3.300
27 regular 6 23 523 69 1.500000e+00 0.291 faster 1 1.821098e+06 1.821100e+06 1.979
27 regular 6 24 524 68 1.500000e+00 0.282 faster 1 1.821102e+06 1.821104e+06 2.129
27 regular 6 25 525 68 1.500000e+00 0.516 faster 1 1.821106e+06 1.821108e+06 2.323
27 regular 6 26 526 53 1.500000e+00 0.523 slower 1 1.821109e+06 1.821112e+06 2.979
27 regular 6 27 527 53 1.500000e+00 0.123 slower 1 1.821113e+06 1.821116e+06 2.436
27 regular 6 28 528 66 1.500000e+00 0.258 faster 1 1.821117e+06 1.821120e+06 2.553
27 regular 6 29 529 54 1.500000e+00 0.281 faster 0 1.821121e+06 1.821124e+06 2.706
27 regular 6 30 530 53 1.500000e+00 0.318 slower 1 1.821126e+06 1.821128e+06 2.472
27 regular 6 31 531 54 1.500000e+00 0.326 slower 1 1.821130e+06 1.821132e+06 2.257
27 regular 6 32 532 66 1.500000e+00 0.424 faster 1 1.821134e+06 1.821137e+06 2.844
27 regular 6 33 533 65 1.500000e+00 0.531 faster 1 1.821138e+06 1.821141e+06 2.162
27 regular 6 34 534 55 1.500000e+00 0.550 slower 1 1.821143e+06 1.821145e+06 2.514
27 regular 6 35 535 56 1.500000e+00 0.551 faster 0 1.821148e+06 1.821150e+06 2.017
27 regular 6 36 536 65 1.500000e+00 0.489 faster 1 1.821152e+06 1.821154e+06 2.328
27 regular 6 37 537 65 1.500000e+00 0.418 faster 1 1.821156e+06 1.821158e+06 2.614
27 regular 6 38 538 64 1.500000e+00 0.329 faster 1 1.821160e+06 1.821162e+06 2.174
27 regular 6 39 539 56 1.500000e+00 0.594 faster 0 1.821164e+06 1.821166e+06 2.110
27 regular 6 40 540 55 1.500000e+00 0.113 faster 0 1.821168e+06 1.821171e+06 3.176
27 regular 6 41 541 54 1.500000e+00 0.116 slower 1 1.821172e+06 1.821175e+06 2.525
27 regular 6 42 542 65 1.500000e+00 0.114 faster 1 1.821176e+06 1.821178e+06 2.057
27 regular 6 43 543 55 1.500000e+00 0.110 faster 0 1.821179e+06 1.821181e+06 2.071
27 regular 6 44 544 54 1.500000e+00 0.391 faster 0 1.821183e+06 1.821185e+06 2.070
27 regular 6 45 545 67 1.500000e+00 0.310 faster 1 1.821186e+06 1.821189e+06 2.339
27 regular 6 46 546 66 1.500000e+00 0.353 faster 1 1.821190e+06 1.821192e+06 2.138
27 regular 6 47 547 54 1.500000e+00 0.295 faster 0 1.821193e+06 1.821195e+06 1.941
27 regular 6 48 548 53 1.500000e+00 0.473 slower 1 1.821196e+06 1.821199e+06 2.663
27 regular 6 49 549 54 1.500000e+00 0.165 slower 1 1.821200e+06 1.821202e+06 2.640
27 regular 6 50 550 54 1.500000e+00 0.199 slower 1 1.821204e+06 1.821206e+06 2.372
27 regular 6 51 551 65 1.500000e+00 0.237 faster 1 1.821208e+06 1.821210e+06 2.095
27 regular 6 52 552 65 1.500000e+00 0.129 faster 1 1.821211e+06 1.821213e+06 2.311
27 regular 6 53 553 64 1.500000e+00 0.299 slower 0 1.821215e+06 1.821218e+06 2.953
27 regular 6 54 554 55 1.500000e+00 0.592 slower 1 1.821219e+06 1.821222e+06 2.919
27 regular 6 55 555 55 1.500000e+00 0.162 slower 1 1.821224e+06 1.821226e+06 2.237
27 regular 6 56 556 64 1.500000e+00 0.326 slower 0 1.821228e+06 1.821230e+06 2.327
27 regular 6 57 557 65 1.500000e+00 0.409 slower 0 1.821232e+06 1.821234e+06 2.082
27 regular 6 58 558 54 1.500000e+00 0.565 slower 1 1.821236e+06 1.821239e+06 2.329
27 regular 6 59 559 66 1.500000e+00 0.203 slower 0 1.821241e+06 1.821244e+06 2.454
27 regular 6 60 560 67 1.500000e+00 0.525 faster 1 1.821246e+06 1.821248e+06 2.088
27 regular 6 61 561 66 1.500000e+00 0.107 faster 1 1.821249e+06 1.821251e+06 2.120
27 regular 6 62 562 54 1.500000e+00 0.472 slower 1 1.821254e+06 1.821256e+06 2.570
27 regular 6 63 563 55 1.500000e+00 0.351 faster 0 1.821258e+06 1.821260e+06 2.331
27 regular 6 64 564 66 1.500000e+00 0.470 faster 1 1.821262e+06 1.821265e+06 2.394
27 regular 6 65 565 54 1.500000e+00 0.233 slower 1 1.821266e+06 1.821269e+06 2.449
27 regular 6 66 566 55 1.500000e+00 0.235 slower 1 1.821271e+06 1.821273e+06 2.207
27 regular 6 67 567 65 1.500000e+00 0.321 faster 1 1.821275e+06 1.821277e+06 2.276
27 regular 6 68 568 56 1.500000e+00 0.460 slower 1 1.821279e+06 1.821281e+06 2.490
27 regular 6 69 569 56 1.500000e+00 0.274 slower 1 1.821283e+06 1.821286e+06 2.976
27 regular 6 70 570 63 1.500000e+00 0.420 faster 1 1.821288e+06 1.821290e+06 2.058
27 regular 6 71 571 57 1.500000e+00 0.102 faster 0 1.821292e+06 1.821294e+06 2.328
27 regular 6 72 572 64 1.500000e+00 0.360 slower 0 1.821296e+06 1.821299e+06 2.284
27 regular 6 73 573 55 1.500000e+00 0.432 slower 1 1.821303e+06 1.821306e+06 3.234
27 regular 6 74 574 64 1.500000e+00 0.299 slower 0 1.821307e+06 1.821310e+06 2.690
27 regular 6 75 575 65 1.500000e+00 0.147 slower 0 1.821311e+06 1.821314e+06 2.646
27 regular 6 76 576 66 1.500000e+00 0.590 faster 1 1.821315e+06 1.821319e+06 3.722
27 regular 6 77 577 54 1.500000e+00 0.130 slower 1 1.821321e+06 1.821324e+06 2.772
27 regular 6 78 578 55 1.500000e+00 0.224 slower 1 1.821325e+06 1.821328e+06 2.804
27 regular 6 79 579 55 1.500000e+00 0.311 slower 1 1.821329e+06 1.821332e+06 3.009
27 regular 6 80 580 64 1.500000e+00 0.520 slower 0 1.821333e+06 1.821336e+06 2.667
27 regular 6 81 581 55 1.500000e+00 0.235 slower 1 1.821337e+06 1.821341e+06 3.892
27 regular 6 82 582 55 1.500000e+00 0.435 slower 1 1.821343e+06 1.821345e+06 2.553
27 regular 6 83 583 64 1.500000e+00 0.243 none 2 1.821347e+06 1.821352e+06 4.499
27 regular 6 84 584 64 1.500000e+00 0.502 none 2 1.821354e+06 1.821359e+06 4.500
27 regular 6 85 585 56 1.500000e+00 0.157 slower 1 1.821359e+06 1.821362e+06 2.192
27 regular 6 86 586 64 1.500000e+00 0.188 faster 1 1.821363e+06 1.821365e+06 2.101
27 regular 6 87 587 57 1.500000e+00 0.580 faster 0 1.821367e+06 1.821369e+06 2.226
27 regular 6 88 588 64 1.500000e+00 0.484 faster 1 1.821371e+06 1.821373e+06 2.168
27 regular 6 89 589 64 1.500000e+00 0.470 faster 1 1.821375e+06 1.821377e+06 1.980
27 regular 6 90 590 63 1.500000e+00 0.324 faster 1 1.821379e+06 1.821381e+06 2.125
27 regular 6 91 591 57 1.500000e+00 0.449 faster 0 1.821383e+06 1.821385e+06 1.965
27 regular 6 92 592 56 1.500000e+00 0.251 slower 1 1.821387e+06 1.821389e+06 2.037
27 regular 6 93 593 57 1.500000e+00 0.320 faster 0 1.821390e+06 1.821392e+06 1.958
27 regular 6 94 594 56 1.500000e+00 0.554 slower 1 1.821394e+06 1.821396e+06 2.495
27 regular 6 95 595 56 1.500000e+00 0.239 faster 0 1.821398e+06 1.821400e+06 2.042
27 regular 6 96 596 65 1.500000e+00 0.575 slower 0 1.821402e+06 1.821404e+06 2.342
27 regular 6 97 597 54 1.500000e+00 0.341 slower 1 1.821406e+06 1.821408e+06 2.180
27 regular 6 98 598 55 1.500000e+00 0.179 faster 0 1.821409e+06 1.821412e+06 2.664
27 regular 6 99 599 66 1.500000e+00 0.409 faster 1 1.821414e+06 1.821416e+06 2.243
27 regular 6 100 600 66 1.500000e+00 0.552 faster 1 1.821417e+06 1.821419e+06 2.193
27 irregular 7 1 601 65 3 0.170 faster 1 1.821475e+06 1.821480e+06 4.861
27 irregular 7 2 602 65 1.500000e+00 0.329 faster 1 1.821483e+06 1.821485e+06 2.382
27 irregular 7 3 603 56 2.500000e+00 0.117 slower 1 1.821488e+06 1.821491e+06 3.234
27 irregular 7 4 604 64 2 0.165 faster 1 1.821493e+06 1.821496e+06 2.702
27 irregular 7 5 605 57 2 0.438 slower 1 1.821499e+06 1.821502e+06 3.367
27 irregular 7 6 606 57 1 0.399 slower 1 1.821506e+06 1.821509e+06 2.341
27 irregular 7 7 607 58 1.500000e+00 0.372 faster 0 1.821511e+06 1.821513e+06 2.025
27 irregular 7 8 608 63 3 0.178 faster 1 1.821514e+06 1.821518e+06 3.653
27 irregular 7 9 609 57 3 0.283 faster 0 1.821520e+06 1.821524e+06 4.676
27 irregular 7 10 610 64 2 0.239 faster 1 1.821528e+06 1.821531e+06 2.951
27 irregular 7 11 611 63 3 0.349 faster 1 1.821534e+06 1.821538e+06 4.256
27 irregular 7 12 612 57 2.500000e+00 0.190 faster 0 1.821540e+06 1.821544e+06 3.963
27 irregular 7 13 613 64 2.500000e+00 0.206 faster 1 1.821548e+06 1.821552e+06 3.648
27 irregular 7 14 614 63 2 0.535 faster 1 1.821555e+06 1.821558e+06 2.943
27 irregular 7 15 615 57 1 0.186 faster 0 1.821561e+06 1.821563e+06 1.946
27 irregular 7 16 616 64 3 0.415 faster 1 1.821568e+06 1.821572e+06 4.058
27 irregular 7 17 617 57 2 0.181 faster 0 1.821574e+06 1.821577e+06 2.753
27 irregular 7 18 618 56 2.500000e+00 0.136 faster 0 1.821580e+06 1.821584e+06 4.014
27 irregular 7 19 619 55 2 0.201 faster 0 1.821588e+06 1.821591e+06 2.933
27 irregular 7 20 620 54 1.500000e+00 0.118 faster 0 1.821592e+06 1.821595e+06 3.259
27 irregular 7 21 621 67 2.500000e+00 0.311 faster 1 1.821597e+06 1.821600e+06 3.128
27 irregular 7 22 622 53 1.500000e+00 0.393 slower 1 1.821602e+06 1.821605e+06 2.442
27 irregular 7 23 623 66 3 0.127 faster 1 1.821607e+06 1.821610e+06 3.795
27 irregular 7 24 624 54 2.500000e+00 0.499 slower 1 1.821612e+06 1.821615e+06 3.329
27 irregular 7 25 625 55 3 0.532 faster 0 1.821618e+06 1.821622e+06 4.051
27 irregular 7 26 626 54 2.500000e+00 0.575 faster 0 1.821625e+06 1.821628e+06 3.335
27 irregular 7 27 627 67 3 0.563 faster 1 1.821630e+06 1.821633e+06 3.601
27 irregular 7 28 628 53 1 0.282 faster 0 1.821635e+06 1.821637e+06 1.850
27 irregular 7 29 629 52 2 0.567 slower 1 1.821639e+06 1.821642e+06 2.888
27 irregular 7 30 630 53 3 0.187 slower 1 1.821644e+06 1.821648e+06 4.439
27 irregular 7 31 631 53 2 0.321 slower 1 1.821652e+06 1.821655e+06 3.062
27 irregular 7 32 632 66 1.500000e+00 0.186 faster 1 1.821657e+06 1.821659e+06 2.170
27 irregular 7 33 633 66 2.500000e+00 0.488 faster 1 1.821661e+06 1.821665e+06 3.469
27 irregular 7 34 634 65 1.500000e+00 0.210 slower 0 1.821666e+06 1.821669e+06 2.744
27 irregular 7 35 635 54 1.500000e+00 0.526 faster 0 1.821674e+06 1.821676e+06 1.969
27 irregular 7 36 636 67 1 0.482 faster 1 1.821679e+06 1.821681e+06 2.008
27 irregular 7 37 637 67 3 0.294 faster 1 1.821684e+06 1.821688e+06 4.377
27 irregular 7 38 638 54 2.500000e+00 0.270 faster 0 1.821693e+06 1.821696e+06 3.643
27 irregular 7 39 639 67 2.500000e+00 0.322 faster 1 1.821699e+06 1.821702e+06 3.208
27 irregular 7 40 640 53 1 0.283 slower 1 1.821703e+06 1.821705e+06 2.065
27 irregular 7 41 641 66 1 0.493 faster 1 1.821707e+06 1.821709e+06 2.062
27 irregular 7 42 642 54 1 0.138 slower 1 1.821711e+06 1.821714e+06 2.578
27 irregular 7 43 643 55 1.500000e+00 0.315 faster 0 1.821717e+06 1.821720e+06 3.148
27 irregular 7 44 644 54 1.500000e+00 0.460 faster 0 1.821723e+06 1.821725e+06 2.161
27 irregular 7 45 645 53 2.500000e+00 0.255 slower 1 1.821727e+06 1.821730e+06 3.375
27 irregular 7 46 646 53 3 0.500 faster 0 1.821734e+06 1.821738e+06 3.695
27 irregular 7 47 647 52 1 0.397 faster 0 1.821740e+06 1.821741e+06 1.819
27 irregular 7 48 648 69 3 0.151 faster 1 1.821743e+06 1.821747e+06 3.578
27 irregular 7 49 649 68 1.500000e+00 0.488 faster 1 1.821748e+06 1.821750e+06 2.045
27 irregular 7 50 650 68 1.500000e+00 0.541 faster 1 1.821752e+06 1.821754e+06 2.032
27 irregular 7 51 651 53 1 0.559 faster 0 1.821756e+06 1.821758e+06 1.500
27 irregular 7 52 652 52 1.500000e+00 0.258 slower 1 1.821760e+06 1.821762e+06 2.279
27 irregular 7 53 653 52 2.500000e+00 0.581 slower 1 1.821763e+06 1.821767e+06 3.360
27 irregular 7 54 654 67 2.500000e+00 0.443 faster 1 1.821768e+06 1.821773e+06 4.713
27 irregular 7 55 655 67 1 0.190 faster 1 1.821783e+06 1.821785e+06 1.641
27 irregular 7 56 656 66 1 0.204 faster 1 1.821786e+06 1.821788e+06 1.500
27 irregular 7 57 657 66 1 0.196 faster 1 1.821795e+06 1.821796e+06 1.688
27 irregular 7 58 658 65 1.500000e+00 0.252 faster 1 1.821798e+06 1.821800e+06 2.011
27 irregular 7 59 659 65 2.500000e+00 0.150 faster 1 1.821801e+06 1.821805e+06 3.438
27 irregular 7 60 660 56 1 0.279 faster 0 1.821806e+06 1.821808e+06 1.994
27 irregular 7 61 661 55 3 0.598 slower 1 1.821810e+06 1.821814e+06 3.939
27 irregular 7 62 662 55 1 0.362 slower 1 1.821816e+06 1.821818e+06 1.766
27 irregular 7 63 663 56 1 0.129 faster 0 1.821820e+06 1.821821e+06 1.710
27 irregular 7 64 664 55 2.500000e+00 0.520 slower 1 1.821823e+06 1.821827e+06 3.802
27 irregular 7 65 665 65 2 0.212 faster 1 1.821829e+06 1.821832e+06 2.937
27 irregular 7 66 666 64 3 0.227 faster 1 1.821834e+06 1.821837e+06 3.754
27 irregular 7 67 667 56 2 0.590 faster 0 1.821840e+06 1.821843e+06 2.970
27 irregular 7 68 668 65 3 0.281 slower 0 1.821845e+06 1.821849e+06 3.977
27 irregular 7 69 669 54 2 0.369 faster 0 1.821850e+06 1.821854e+06 3.460
27 irregular 7 70 670 67 2.500000e+00 0.204 faster 1 1.821857e+06 1.821861e+06 4.552
27 irregular 7 71 671 66 2 0.371 faster 1 1.821864e+06 1.821867e+06 3.126
27 irregular 7 72 672 66 2.500000e+00 0.512 faster 1 1.821870e+06 1.821873e+06 3.727
27 irregular 7 73 673 65 1 0.439 faster 1 1.821878e+06 1.821881e+06 2.678
27 irregular 7 74 674 55 3 0.150 slower 1 1.821882e+06 1.821888e+06 5.678
27 irregular 7 75 675 56 3 0.558 none 2 1.821891e+06 1.821897e+06 6.000
27 irregular 7 76 676 56 2 0.164 slower 1 1.821901e+06 1.821904e+06 2.720
27 irregular 7 77 677 56 2.500000e+00 0.110 slower 1 1.821906e+06 1.821910e+06 3.864
27 irregular 7 78 678 63 2 0.502 faster 1 1.821913e+06 1.821917e+06 4.108
27 irregular 7 79 679 63 1 0.529 faster 1 1.821919e+06 1.821920e+06 1.724
27 irregular 7 80 680 62 2 0.198 faster 1 1.821922e+06 1.821925e+06 2.665
27 irregular 7 81 681 62 1.500000e+00 0.450 faster 1 1.821926e+06 1.821929e+06 2.155
27 irregular 7 82 682 61 1.500000e+00 0.527 faster 1 1.821930e+06 1.821932e+06 1.948
27 irregular 7 83 683 61 2 0.255 slower 0 1.821935e+06 1.821939e+06 3.949
27 irregular 7 84 684 62 1 0.476 faster 1 1.821941e+06 1.821942e+06 1.684
27 irregular 7 85 685 59 1.500000e+00 0.539 faster 0 1.821944e+06 1.821946e+06 2.121
27 irregular 7 86 686 62 2 0.539 faster 1 1.821949e+06 1.821952e+06 2.717
27 irregular 7 87 687 58 1.500000e+00 0.308 faster 0 1.821953e+06 1.821955e+06 2.481
27 irregular 7 88 688 63 1.500000e+00 0.583 slower 0 1.821959e+06 1.821963e+06 3.369
27 irregular 7 89 689 64 2 0.426 slower 0 1.821965e+06 1.821967e+06 2.727
27 irregular 7 90 690 65 2.500000e+00 0.222 faster 1 1.821968e+06 1.821972e+06 3.375
27 irregular 7 91 691 56 3 0.594 slower 1 1.821974e+06 1.821979e+06 5.622
27 irregular 7 92 692 56 3 0.364 faster 0 1.821981e+06 1.821985e+06 3.984
27 irregular 7 93 693 55 1.500000e+00 0.211 slower 1 1.821988e+06 1.821990e+06 2.457
27 irregular 7 94 694 64 1 0.396 faster 1 1.821992e+06 1.821994e+06 1.813
27 irregular 7 95 695 64 1.500000e+00 0.520 faster 1 1.822000e+06 1.822003e+06 3.038
27 irregular 7 96 696 63 2.500000e+00 0.392 faster 1 1.822005e+06 1.822008e+06 3.459
27 irregular 7 97 697 57 2 0.570 faster 0 1.822010e+06 1.822013e+06 2.729
27 irregular 7 98 698 64 1 0.595 faster 1 1.822015e+06 1.822017e+06 1.751
27 irregular 7 99 699 57 3 0.311 faster 0 1.822019e+06 1.822022e+06 3.800
27 irregular 7 100 700 56 2 0.461 faster 0 1.822024e+06 1.822027e+06 2.779
27 regular 8 1 701 55 2.500000e+00 0.557 faster 0 1.822106e+06 1.822110e+06 3.698
27 regular 8 2 702 66 2.500000e+00 0.415 faster 1 1.822114e+06 1.822117e+06 3.032
27 regular 8 3 703 54 2.500000e+00 0.100 faster 0 1.822121e+06 1.822124e+06 3.067
27 regular 8 4 704 53 2.500000e+00 0.106 faster 0 1.822125e+06 1.822128e+06 3.028
27 regular 8 5 705 52 2.500000e+00 0.552 slower 1 1.822130e+06 1.822134e+06 4.305
27 regular 8 6 706 53 2.500000e+00 0.337 faster 0 1.822136e+06 1.822139e+06 3.059
27 regular 8 7 707 68 2.500000e+00 0.481 faster 1 1.822143e+06 1.822146e+06 3.045
27 regular 8 8 708 52 2.500000e+00 0.491 faster 0 1.822147e+06 1.822151e+06 3.499
27 regular 8 9 709 69 2.500000e+00 0.219 faster 1 1.822152e+06 1.822155e+06 3.105
27 regular 8 10 710 52 2.500000e+00 0.591 slower 1 1.822157e+06 1.822161e+06 3.518
27 regular 8 11 711 52 2.500000e+00 0.457 slower 1 1.822162e+06 1.822166e+06 3.226
27 regular 8 12 712 53 2.500000e+00 0.573 faster 0 1.822169e+06 1.822172e+06 3.313
27 regular 8 13 713 68 2.500000e+00 0.416 faster 1 1.822174e+06 1.822177e+06 3.133
27 regular 8 14 714 52 2.500000e+00 0.166 faster 0 1.822179e+06 1.822182e+06 3.337
27 regular 8 15 715 69 2.500000e+00 0.410 faster 1 1.822184e+06 1.822187e+06 3.251
27 regular 8 16 716 52 2.500000e+00 0.467 faster 0 1.822189e+06 1.822192e+06 3.227
27 regular 8 17 717 69 2.500000e+00 0.540 faster 1 1.822194e+06 1.822197e+06 3.148
27 regular 8 18 718 51 2.500000e+00 0.304 faster 0 1.822199e+06 1.822202e+06 3.210
27 regular 8 19 719 70 2.500000e+00 0.495 faster 1 1.822204e+06 1.822207e+06 3.228
27 regular 8 20 720 51 2.500000e+00 0.221 faster 0 1.822208e+06 1.822212e+06 3.424
27 regular 8 21 721 50 2.500000e+00 0.365 slower 1 1.822214e+06 1.822217e+06 3.666
27 regular 8 22 722 50 2.500000e+00 0.281 faster 0 1.822219e+06 1.822222e+06 3.096
27 regular 8 23 723 71 2.500000e+00 0.579 faster 1 1.822224e+06 1.822227e+06 3.132
27 regular 8 24 724 50 2.500000e+00 0.428 faster 0 1.822229e+06 1.822232e+06 3.300
27 regular 8 25 725 71 2.500000e+00 0.352 faster 1 1.822235e+06 1.822238e+06 3.166
27 regular 8 26 726 49 2.500000e+00 0.439 slower 1 1.822245e+06 1.822248e+06 3.366
27 regular 8 27 727 70 2.500000e+00 0.200 faster 1 1.822251e+06 1.822254e+06 3.231
27 regular 8 28 728 70 2.500000e+00 0.227 faster 1 1.822256e+06 1.822259e+06 3.279
27 regular 8 29 729 51 2.500000e+00 0.368 slower 1 1.822261e+06 1.822264e+06 3.488
27 regular 8 30 730 69 2.500000e+00 0.501 faster 1 1.822273e+06 1.822277e+06 3.571
27 regular 8 31 731 52 2.500000e+00 0.567 faster 0 1.822278e+06 1.822282e+06 3.333
27 regular 8 32 732 51 2.500000e+00 0.342 faster 0 1.822283e+06 1.822286e+06 3.027
27 regular 8 33 733 50 2.500000e+00 0.282 faster 0 1.822288e+06 1.822291e+06 3.095
27 regular 8 34 734 71 2.500000e+00 0.416 faster 1 1.822293e+06 1.822296e+06 3.069
27 regular 8 35 735 49 2.500000e+00 0.154 slower 1 1.822298e+06 1.822302e+06 4.020
27 regular 8 36 736 50 2.500000e+00 0.501 faster 0 1.822304e+06 1.822308e+06 4.470
27 regular 8 37 737 71 2.500000e+00 0.600 faster 1 1.822314e+06 1.822318e+06 3.508
27 regular 8 38 738 71 2.500000e+00 0.596 faster 1 1.822319e+06 1.822323e+06 3.437
27 regular 8 39 739 70 2.500000e+00 0.454 faster 1 1.822324e+06 1.822328e+06 3.091
27 regular 8 40 740 50 2.500000e+00 0.111 faster 0 1.822329e+06 1.822333e+06 4.004
27 regular 8 41 741 49 2.500000e+00 0.336 slower 1 1.822335e+06 1.822338e+06 3.391
27 regular 8 42 742 70 2.500000e+00 0.379 faster 1 1.822341e+06 1.822344e+06 3.309
27 regular 8 43 743 70 2.500000e+00 0.384 faster 1 1.822346e+06 1.822349e+06 3.061
27 regular 8 44 744 51 2.500000e+00 0.586 faster 0 1.822351e+06 1.822354e+06 3.152
27 regular 8 45 745 70 2.500000e+00 0.165 faster 1 1.822355e+06 1.822359e+06 3.150
27 regular 8 46 746 70 2.500000e+00 0.120 faster 1 1.822360e+06 1.822363e+06 3.098
27 regular 8 47 747 51 2.500000e+00 0.174 faster 0 1.822364e+06 1.822368e+06 3.359
27 regular 8 48 748 70 2.500000e+00 0.250 faster 1 1.822369e+06 1.822372e+06 2.973
27 regular 8 49 749 50 2.500000e+00 0.391 faster 0 1.822374e+06 1.822377e+06 3.257
27 regular 8 50 750 49 2.500000e+00 0.574 slower 1 1.822380e+06 1.822384e+06 3.495
27 regular 8 51 751 50 2.500000e+00 0.322 faster 0 1.822388e+06 1.822391e+06 3.940
27 regular 8 52 752 49 2.500000e+00 0.516 slower 1 1.822415e+06 1.822419e+06 4.100
27 regular 8 53 753 71 2.500000e+00 0.238 slower 0 1.822421e+06 1.822425e+06 4.268
27 regular 8 54 754 72 2.500000e+00 0.533 faster 1 1.822427e+06 1.822430e+06 3.079
27 regular 8 55 755 71 2.500000e+00 0.434 faster 1 1.822432e+06 1.822435e+06 3.073
27 regular 8 56 756 71 2.500000e+00 0.291 faster 1 1.822438e+06 1.822441e+06 2.961
27 regular 8 57 757 50 2.500000e+00 0.220 slower 1 1.822442e+06 1.822445e+06 3.255
27 regular 8 58 758 50 2.500000e+00 0.206 slower 1 1.822449e+06 1.822452e+06 3.249
27 regular 8 59 759 69 2.500000e+00 0.275 faster 1 1.822458e+06 1.822462e+06 3.328
27 regular 8 60 760 69 2.500000e+00 0.519 faster 1 1.822472e+06 1.822476e+06 3.640
27 regular 8 61 761 68 2.500000e+00 0.290 faster 1 1.822478e+06 1.822481e+06 3.363
27 regular 8 62 762 68 2.500000e+00 0.101 faster 1 1.822487e+06 1.822490e+06 3.173
27 regular 8 63 763 67 2.500000e+00 0.565 faster 1 1.822494e+06 1.822497e+06 3.194
27 regular 8 64 764 67 2.500000e+00 0.370 faster 1 1.822499e+06 1.822502e+06 3.198
27 regular 8 65 765 54 2.500000e+00 0.347 faster 0 1.822505e+06 1.822508e+06 3.323
27 regular 8 66 766 53 2.500000e+00 0.321 faster 0 1.822512e+06 1.822515e+06 3.059
27 regular 8 67 767 68 2.500000e+00 0.229 faster 1 1.822526e+06 1.822529e+06 3.091
27 regular 8 68 768 68 2.500000e+00 0.383 faster 1 1.822538e+06 1.822541e+06 3.467
27 regular 8 69 769 53 2.500000e+00 0.528 faster 0 1.822543e+06 1.822546e+06 3.136
27 regular 8 70 770 52 2.500000e+00 0.465 faster 0 1.822549e+06 1.822553e+06 3.104
27 regular 8 71 771 51 2.500000e+00 0.378 slower 1 1.822554e+06 1.822558e+06 3.448
27 regular 8 72 772 69 2.500000e+00 0.244 faster 1 1.822559e+06 1.822562e+06 3.083
27 regular 8 73 773 68 2.500000e+00 0.102 faster 1 1.822564e+06 1.822568e+06 3.972
27 regular 8 74 774 52 2.500000e+00 0.465 faster 0 1.822569e+06 1.822573e+06 3.375
27 regular 8 75 775 69 2.500000e+00 0.351 faster 1 1.822575e+06 1.822579e+06 4.164
27 regular 8 76 776 52 2.500000e+00 0.346 faster 0 1.822581e+06 1.822585e+06 3.832
27 regular 8 77 777 69 2.500000e+00 0.272 faster 1 1.822587e+06 1.822590e+06 3.054
27 regular 8 78 778 69 2.500000e+00 0.357 faster 1 1.822591e+06 1.822595e+06 3.244
27 regular 8 79 779 52 2.500000e+00 0.141 faster 0 1.822595e+06 1.822599e+06 3.692
27 regular 8 80 780 69 2.500000e+00 0.130 faster 1 1.822601e+06 1.822604e+06 3.249
27 regular 8 81 781 69 2.500000e+00 0.164 faster 1 1.822608e+06 1.822611e+06 3.307
27 regular 8 82 782 68 2.500000e+00 0.325 faster 1 1.822621e+06 1.822625e+06 3.891
27 regular 8 83 783 52 2.500000e+00 0.176 slower 1 1.822627e+06 1.822631e+06 3.543
27 regular 8 84 784 53 2.500000e+00 0.535 slower 1 1.822633e+06 1.822637e+06 3.524
27 regular 8 85 785 67 2.500000e+00 0.471 faster 1 1.822641e+06 1.822646e+06 5.163
27 regular 8 86 786 54 2.500000e+00 0.426 slower 1 1.822647e+06 1.822652e+06 4.124
27 regular 8 87 787 54 2.500000e+00 0.338 faster 0 1.822654e+06 1.822658e+06 3.981
27 regular 8 88 788 53 2.500000e+00 0.481 faster 0 1.822660e+06 1.822664e+06 4.263
27 regular 8 89 789 68 2.500000e+00 0.378 faster 1 1.822668e+06 1.822672e+06 4.825
27 regular 8 90 790 67 2.500000e+00 0.388 faster 1 1.822676e+06 1.822680e+06 4.001
27 regular 8 91 791 53 2.500000e+00 0.252 slower 1 1.822681e+06 1.822685e+06 3.271
27 regular 8 92 792 66 2.500000e+00 0.549 faster 1 1.822687e+06 1.822690e+06 3.093
27 regular 8 93 793 54 2.500000e+00 0.162 slower 1 1.822692e+06 1.822695e+06 3.244
27 regular 8 94 794 65 2.500000e+00 0.572 faster 1 1.822696e+06 1.822699e+06 3.315
27 regular 8 95 795 65 2.500000e+00 0.500 faster 1 1.822701e+06 1.822705e+06 3.339
27 regular 8 96 796 56 2.500000e+00 0.555 faster 0 1.822706e+06 1.822709e+06 3.207
27 regular 8 97 797 65 2.500000e+00 0.351 faster 1 1.822711e+06 1.822714e+06 3.145
27 regular 8 98 798 65 2.500000e+00 0.575 faster 1 1.822717e+06 1.822721e+06 3.518
27 regular 8 99 799 56 2.500000e+00 0.471 faster 0 1.822725e+06 1.822729e+06 3.857
27 regular 8 100 800 65 2.500000e+00 0.287 faster 1 1.822732e+06 1.822735e+06 3.311
27 irregular 9 1 801 55 1.500000e+00 0.154 faster 0 1.822752e+06 1.822755e+06 2.544
27 irregular 9 2 802 54 1.500000e+00 0.111 slower 1 1.822757e+06 1.822761e+06 3.426
27 irregular 9 3 803 55 2.500000e+00 0.457 slower 1 1.822764e+06 1.822768e+06 3.627
27 irregular 9 4 804 65 2.500000e+00 0.230 faster 1 1.822771e+06 1.822774e+06 3.069
27 irregular 9 5 805 56 1 0.283 faster 0 1.822777e+06 1.822779e+06 1.648
27 irregular 9 6 806 65 2.500000e+00 0.468 faster 1 1.822780e+06 1.822783e+06 3.109
27 irregular 9 7 807 55 3 0.333 faster 0 1.822786e+06 1.822790e+06 3.875
27 irregular 9 8 808 66 1.500000e+00 0.244 faster 1 1.822797e+06 1.822800e+06 2.409
27 irregular 9 9 809 65 1 0.458 faster 1 1.822803e+06 1.822804e+06 1.773
27 irregular 9 10 810 65 2 0.360 faster 1 1.822805e+06 1.822810e+06 4.763
27 irregular 9 11 811 64 3 0.264 faster 1 1.822815e+06 1.822819e+06 3.911
27 irregular 9 12 812 56 3 0.229 faster 0 1.822821e+06 1.822825e+06 3.801
27 irregular 9 13 813 65 2.500000e+00 0.193 faster 1 1.822828e+06 1.822831e+06 3.606
27 irregular 9 14 814 56 1 0.261 faster 0 1.822832e+06 1.822836e+06 3.260
27 irregular 9 15 815 65 1 0.237 faster 1 1.822837e+06 1.822838e+06 1.428
27 irregular 9 16 816 55 1.500000e+00 0.587 faster 0 1.822840e+06 1.822842e+06 1.878
27 irregular 9 17 817 66 3 0.356 faster 1 1.822843e+06 1.822847e+06 3.544
27 irregular 9 18 818 65 3 0.282 faster 1 1.822849e+06 1.822853e+06 3.679
27 irregular 9 19 819 65 1 0.237 faster 1 1.822855e+06 1.822858e+06 2.431
27 irregular 9 20 820 56 3 0.305 slower 1 1.822860e+06 1.822864e+06 4.055
27 irregular 9 21 821 64 2 0.358 faster 1 1.822866e+06 1.822868e+06 2.505
27 irregular 9 22 822 63 3 0.440 faster 1 1.822869e+06 1.822873e+06 3.526
27 irregular 9 23 823 57 2 0.148 faster 0 1.822878e+06 1.822882e+06 4.129
27 irregular 9 24 824 64 2 0.411 faster 1 1.822883e+06 1.822887e+06 3.332
27 irregular 9 25 825 63 2.500000e+00 0.240 faster 1 1.822888e+06 1.822892e+06 3.436
27 irregular 9 26 826 63 2 0.209 slower 0 1.822893e+06 1.822897e+06 3.763
27 irregular 9 27 827 56 2.500000e+00 0.462 faster 0 1.822900e+06 1.822903e+06 3.220
27 irregular 9 28 828 55 3 0.482 faster 0 1.822905e+06 1.822909e+06 4.036
27 irregular 9 29 829 54 2 0.251 faster 0 1.822911e+06 1.822913e+06 2.589
27 irregular 9 30 830 67 1.500000e+00 0.191 faster 1 1.822924e+06 1.822926e+06 2.144
27 irregular 9 31 831 54 2.500000e+00 0.468 faster 0 1.822928e+06 1.822932e+06 3.772
27 irregular 9 32 832 67 3 0.275 faster 1 1.822935e+06 1.822939e+06 3.725
27 irregular 9 33 833 67 2.500000e+00 0.365 faster 1 1.822941e+06 1.822944e+06 3.148
27 irregular 9 34 834 66 2 0.410 faster 1 1.822947e+06 1.822949e+06 2.742
27 irregular 9 35 835 66 1.500000e+00 0.105 faster 1 1.822952e+06 1.822955e+06 2.623
27 irregular 9 36 836 65 1.500000e+00 0.571 faster 1 1.822956e+06 1.822958e+06 2.229
27 irregular 9 37 837 55 2 0.478 slower 1 1.822960e+06 1.822963e+06 2.832
27 irregular 9 38 838 56 3 0.264 faster 0 1.822968e+06 1.822972e+06 3.780
27 irregular 9 39 839 65 1 0.442 faster 1 1.822975e+06 1.822977e+06 2.063
27 irregular 9 40 840 65 2 0.572 faster 1 1.822978e+06 1.822981e+06 2.779
27 irregular 9 41 841 64 1 0.417 faster 1 1.822982e+06 1.822984e+06 1.754
27 irregular 9 42 842 64 2 0.290 faster 1 1.822987e+06 1.822989e+06 2.692
27 irregular 9 43 843 57 1 0.392 faster 0 1.822990e+06 1.822992e+06 1.582
27 irregular 9 44 844 64 1 0.157 faster 1 1.822993e+06 1.822996e+06 2.353
27 irregular 9 45 845 56 2.500000e+00 0.286 slower 1 1.822997e+06 1.823000e+06 3.272
27 irregular 9 46 846 63 1 0.129 slower 0 1.823001e+06 1.823004e+06 2.412
27 irregular 9 47 847 56 1 0.267 slower 1 1.823005e+06 1.823007e+06 1.614
27 irregular 9 48 848 64 2.500000e+00 0.257 slower 0 1.823009e+06 1.823012e+06 3.100
27 irregular 9 49 849 55 1.500000e+00 0.546 faster 0 1.823017e+06 1.823020e+06 2.527
27 irregular 9 50 850 54 2 0.217 faster 0 1.823022e+06 1.823025e+06 2.892
27 irregular 9 51 851 53 2.500000e+00 0.174 faster 0 1.823027e+06 1.823030e+06 3.363
27 irregular 9 52 852 52 1.500000e+00 0.159 faster 0 1.823031e+06 1.823033e+06 2.090
27 irregular 9 53 853 51 1 0.359 faster 0 1.823035e+06 1.823037e+06 1.541
27 irregular 9 54 854 50 3 0.191 faster 0 1.823039e+06 1.823042e+06 3.685
27 irregular 9 55 855 71 2.500000e+00 0.565 faster 1 1.823044e+06 1.823048e+06 3.131
27 irregular 9 56 856 70 3 0.210 faster 1 1.823049e+06 1.823053e+06 3.322
27 irregular 9 57 857 70 2 0.538 faster 1 1.823055e+06 1.823057e+06 2.223
27 irregular 9 58 858 69 3 0.282 faster 1 1.823059e+06 1.823063e+06 3.667
27 irregular 9 59 859 69 1.500000e+00 0.465 faster 1 1.823065e+06 1.823067e+06 2.172
27 irregular 9 60 860 68 3 0.394 faster 1 1.823068e+06 1.823071e+06 3.539
27 irregular 9 61 861 52 3 0.418 faster 0 1.823073e+06 1.823077e+06 3.565
27 irregular 9 62 862 69 1.500000e+00 0.150 faster 1 1.823078e+06 1.823080e+06 2.002
27 irregular 9 63 863 68 1 0.289 faster 1 1.823082e+06 1.823084e+06 1.461
27 irregular 9 64 864 52 3 0.167 slower 1 1.823085e+06 1.823089e+06 4.564
27 irregular 9 65 865 53 3 0.157 faster 0 1.823092e+06 1.823095e+06 3.749
27 irregular 9 66 866 52 2 0.478 faster 0 1.823098e+06 1.823101e+06 2.701
27 irregular 9 67 867 51 1.500000e+00 0.411 faster 0 1.823103e+06 1.823105e+06 2.209
27 irregular 9 68 868 50 1 0.370 slower 1 1.823106e+06 1.823108e+06 1.685
27 irregular 9 69 869 50 1 0.462 slower 1 1.823110e+06 1.823112e+06 1.780
27 irregular 9 70 870 69 2 0.166 faster 1 1.823113e+06 1.823116e+06 3.101
27 irregular 9 71 871 51 1.500000e+00 0.561 faster 0 1.823120e+06 1.823123e+06 2.209
27 irregular 9 72 872 70 2.500000e+00 0.339 faster 1 1.823124e+06 1.823127e+06 3.003
27 irregular 9 73 873 51 1.500000e+00 0.465 faster 0 1.823130e+06 1.823132e+06 2.131
27 irregular 9 74 874 50 1 0.443 faster 0 1.823134e+06 1.823135e+06 1.495
27 irregular 9 75 875 71 1.500000e+00 0.389 faster 1 1.823137e+06 1.823139e+06 1.959
27 irregular 9 76 876 49 2.500000e+00 0.155 slower 1 1.823146e+06 1.823149e+06 3.281
27 irregular 9 77 877 50 2.500000e+00 0.575 faster 0 1.823154e+06 1.823158e+06 4.126
27 irregular 9 78 878 49 1 0.290 slower 1 1.823161e+06 1.823163e+06 1.818
27 irregular 9 79 879 49 1.500000e+00 0.567 slower 1 1.823165e+06 1.823168e+06 2.870
27 irregular 9 80 880 50 1 0.323 faster 0 1.823170e+06 1.823171e+06 1.769
27 irregular 9 81 881 49 2.500000e+00 0.357 slower 1 1.823174e+06 1.823178e+06 3.370
27 irregular 9 82 882 49 2.500000e+00 0.242 faster 0 1.823179e+06 1.823182e+06 3.193
27 irregular 9 83 883 48 2 0.419 slower 1 1.823184e+06 1.823187e+06 3.416
27 irregular 9 84 884 71 1.500000e+00 0.523 faster 1 1.823190e+06 1.823192e+06 2.460
27 irregular 9 85 885 49 2 0.321 slower 1 1.823194e+06 1.823196e+06 2.647
27 irregular 9 86 886 50 2.500000e+00 0.515 slower 1 1.823198e+06 1.823202e+06 3.208
27 irregular 9 87 887 70 2.500000e+00 0.220 faster 1 1.823203e+06 1.823206e+06 3.259
27 irregular 9 88 888 51 1.500000e+00 0.413 faster 0 1.823209e+06 1.823211e+06 2.453
27 irregular 9 89 889 70 3 0.426 faster 1 1.823214e+06 1.823217e+06 3.733
27 irregular 9 90 890 50 2 0.109 faster 0 1.823219e+06 1.823222e+06 2.728
27 irregular 9 91 891 71 1 0.108 faster 1 1.823223e+06 1.823225e+06 2.189
27 irregular 9 92 892 50 3 0.554 faster 0 1.823228e+06 1.823231e+06 3.876
27 irregular 9 93 893 71 1.500000e+00 0.588 faster 1 1.823233e+06 1.823236e+06 2.159
27 irregular 9 94 894 71 2.500000e+00 0.414 faster 1 1.823237e+06 1.823240e+06 3.160
27 irregular 9 95 895 70 2 0.490 slower 0 1.823242e+06 1.823245e+06 3.141
27 irregular 9 96 896 49 2 0.334 slower 1 1.823247e+06 1.823249e+06 2.723
27 irregular 9 97 897 71 1 0.293 faster 1 1.823251e+06 1.823253e+06 1.773
27 irregular 9 98 898 70 3 0.364 faster 1 1.823254e+06 1.823258e+06 3.963
27 irregular 9 99 899 70 1.500000e+00 0.374 faster 1 1.823260e+06 1.823263e+06 2.368
27 irregular 9 100 900 51 2 0.368 faster 0 1.823265e+06 1.823268e+06 2.911
27 regular 10 1 901 70 3 0.417 faster 1 1.823328e+06 1.823332e+06 3.864
27 regular 10 2 902 50 3 0.422 slower 1 1.823333e+06 1.823337e+06 3.792
27 regular 10 3 903 51 3 0.418 faster 0 1.823338e+06 1.823342e+06 3.832
27 regular 10 4 904 70 3 0.154 faster 1 1.823343e+06 1.823346e+06 3.627
27 regular 10 5 905 50 3 0.272 faster 0 1.823347e+06 1.823352e+06 4.319
27 regular 10 6 906 49 3 0.427 faster 0 1.823353e+06 1.823357e+06 4.073
27 regular 10 7 907 48 3 0.122 slower 1 1.823359e+06 1.823363e+06 3.588
27 regular 10 8 908 71 3 0.512 faster 1 1.823364e+06 1.823368e+06 3.761
27 regular 10 9 909 71 3 0.460 faster 1 1.823370e+06 1.823374e+06 4.516
27 regular 10 10 910 70 3 0.566 faster 1 1.823376e+06 1.823380e+06 4.628
27 regular 10 11 911 50 3 0.277 slower 1 1.823385e+06 1.823390e+06 4.771
27 regular 10 12 912 51 3 0.461 faster 0 1.823392e+06 1.823396e+06 4.270
27 regular 10 13 913 50 3 0.434 faster 0 1.823398e+06 1.823402e+06 3.939
27 regular 10 14 914 49 3 0.307 faster 0 1.823403e+06 1.823407e+06 3.859
27 regular 10 15 915 48 3 0.329 faster 0 1.823408e+06 1.823412e+06 3.682
27 regular 10 16 916 47 3 0.582 faster 0 1.823414e+06 1.823418e+06 4.484
27 regular 10 17 917 74 3 0.286 faster 1 1.823421e+06 1.823425e+06 3.644
27 regular 10 18 918 74 3 0.139 faster 1 1.823429e+06 1.823433e+06 3.836
27 regular 10 19 919 47 3 0.580 faster 0 1.823435e+06 1.823440e+06 4.834
27 regular 10 20 920 74 3 0.102 faster 1 1.823441e+06 1.823445e+06 3.541
27 regular 10 21 921 46 3 0.405 slower 1 1.823447e+06 1.823451e+06 3.624
27 regular 10 22 922 73 3 0.103 faster 1 1.823452e+06 1.823456e+06 3.670
27 regular 10 23 923 73 3 0.323 faster 1 1.823458e+06 1.823461e+06 3.708
27 regular 10 24 924 48 3 0.500 slower 1 1.823463e+06 1.823467e+06 4.051
27 regular 10 25 925 48 3 0.551 slower 1 1.823469e+06 1.823473e+06 3.629
27 regular 10 26 926 49 3 0.461 slower 1 1.823474e+06 1.823478e+06 4.025
27 regular 10 27 927 49 3 0.514 slower 1 1.823481e+06 1.823485e+06 4.187
27 regular 10 28 928 70 3 0.398 faster 1 1.823486e+06 1.823490e+06 3.659
27 regular 10 29 929 50 3 0.245 faster 0 1.823491e+06 1.823495e+06 3.601
27 regular 10 30 930 71 3 0.478 faster 1 1.823498e+06 1.823502e+06 3.776
27 regular 10 31 931 50 3 0.393 slower 1 1.823503e+06 1.823507e+06 3.857
27 regular 10 32 932 70 3 0.475 faster 1 1.823509e+06 1.823513e+06 3.944
27 regular 10 33 933 69 3 0.162 faster 1 1.823514e+06 1.823518e+06 3.734
27 regular 10 34 934 51 3 0.540 faster 0 1.823521e+06 1.823525e+06 4.107
27 regular 10 35 935 70 3 0.202 faster 1 1.823530e+06 1.823534e+06 3.732
27 regular 10 36 936 51 3 0.166 faster 0 1.823537e+06 1.823540e+06 3.654
27 regular 10 37 937 50 3 0.600 faster 0 1.823542e+06 1.823546e+06 3.519
27 regular 10 38 938 71 3 0.462 faster 1 1.823547e+06 1.823551e+06 3.588
27 regular 10 39 939 49 3 0.299 faster 0 1.823553e+06 1.823556e+06 3.690
27 regular 10 40 940 72 3 0.431 faster 1 1.823558e+06 1.823562e+06 3.500
27 regular 10 41 941 71 3 0.464 faster 1 1.823564e+06 1.823567e+06 3.695
27 regular 10 42 942 71 3 0.393 faster 1 1.823569e+06 1.823573e+06 3.661
27 regular 10 43 943 50 3 0.264 faster 0 1.823574e+06 1.823578e+06 3.604
27 regular 10 44 944 71 3 0.178 faster 1 1.823580e+06 1.823583e+06 3.655
27 regular 10 45 945 71 3 0.120 faster 1 1.823585e+06 1.823589e+06 3.956
27 regular 10 46 946 50 3 0.177 slower 1 1.823591e+06 1.823595e+06 4.075
27 regular 10 47 947 70 3 0.499 faster 1 1.823597e+06 1.823600e+06 3.780
27 regular 10 48 948 69 3 0.268 faster 1 1.823604e+06 1.823608e+06 3.902
27 regular 10 49 949 51 3 0.122 slower 1 1.823610e+06 1.823615e+06 4.476
27 regular 10 50 950 52 3 0.213 faster 0 1.823616e+06 1.823621e+06 4.461
27 regular 10 51 951 51 3 0.598 faster 0 1.823623e+06 1.823626e+06 3.856
27 regular 10 52 952 50 3 0.221 slower 1 1.823628e+06 1.823633e+06 5.033
27 regular 10 53 953 70 3 0.144 faster 1 1.823636e+06 1.823640e+06 3.847
27 regular 10 54 954 69 3 0.307 faster 1 1.823641e+06 1.823645e+06 3.680
27 regular 10 55 955 51 3 0.413 faster 0 1.823649e+06 1.823654e+06 4.917
27 regular 10 56 956 50 3 0.252 faster 0 1.823656e+06 1.823659e+06 3.618
27 regular 10 57 957 49 3 0.188 slower 1 1.823663e+06 1.823667e+06 3.784
27 regular 10 58 958 70 3 0.593 faster 1 1.823669e+06 1.823673e+06 3.672
27 regular 10 59 959 70 3 0.372 slower 0 1.823675e+06 1.823680e+06 4.659
27 regular 10 60 960 49 3 0.240 slower 1 1.823684e+06 1.823688e+06 4.145
27 regular 10 61 961 50 3 0.293 slower 1 1.823689e+06 1.823694e+06 4.208
27 regular 10 62 962 70 3 0.164 slower 0 1.823694e+06 1.823698e+06 3.815
27 regular 10 63 963 71 3 0.593 faster 1 1.823699e+06 1.823703e+06 4.021
27 regular 10 64 964 70 3 0.220 slower 0 1.823705e+06 1.823709e+06 4.551
27 regular 10 65 965 49 3 0.575 slower 1 1.823712e+06 1.823715e+06 3.612
27 regular 10 66 966 71 3 0.532 slower 0 1.823717e+06 1.823721e+06 3.825
27 regular 10 67 967 48 3 0.348 slower 1 1.823726e+06 1.823729e+06 3.762
27 regular 10 68 968 49 3 0.317 slower 1 1.823731e+06 1.823735e+06 3.586
27 regular 10 69 969 71 3 0.271 faster 1 1.823736e+06 1.823740e+06 3.847
27 regular 10 70 970 70 3 0.160 faster 1 1.823742e+06 1.823745e+06 3.470
27 regular 10 71 971 70 3 0.248 faster 1 1.823747e+06 1.823750e+06 3.518
27 regular 10 72 972 69 3 0.165 faster 1 1.823752e+06 1.823755e+06 3.659
27 regular 10 73 973 51 3 0.240 faster 0 1.823756e+06 1.823760e+06 3.436
27 regular 10 74 974 50 3 0.223 slower 1 1.823762e+06 1.823766e+06 3.909
27 regular 10 75 975 51 3 0.229 faster 0 1.823767e+06 1.823771e+06 4.066
27 regular 10 76 976 50 3 0.527 slower 1 1.823774e+06 1.823778e+06 3.787
27 regular 10 77 977 50 3 0.577 slower 1 1.823782e+06 1.823786e+06 3.995
27 regular 10 78 978 51 3 0.103 faster 0 1.823788e+06 1.823793e+06 4.616
27 regular 10 79 979 70 3 0.281 faster 1 1.823795e+06 1.823798e+06 3.654
27 regular 10 80 980 70 3 0.250 faster 1 1.823800e+06 1.823804e+06 3.766
27 regular 10 81 981 69 3 0.206 faster 1 1.823806e+06 1.823809e+06 3.591
27 regular 10 82 982 69 3 0.174 faster 1 1.823812e+06 1.823815e+06 3.488
27 regular 10 83 983 68 3 0.576 faster 1 1.823819e+06 1.823822e+06 3.520
27 regular 10 84 984 52 3 0.398 faster 0 1.823824e+06 1.823827e+06 3.424
27 regular 10 85 985 69 3 0.588 faster 1 1.823829e+06 1.823832e+06 3.377
27 regular 10 86 986 68 3 0.558 faster 1 1.823834e+06 1.823838e+06 3.367
27 regular 10 87 987 68 3 0.226 faster 1 1.823839e+06 1.823842e+06 3.220
27 regular 10 88 988 53 3 0.136 faster 0 1.823844e+06 1.823847e+06 3.285
27 regular 10 89 989 68 3 0.271 faster 1 1.823850e+06 1.823853e+06 3.542
27 regular 10 90 990 68 3 0.434 faster 1 1.823855e+06 1.823859e+06 3.549
27 regular 10 91 991 67 3 0.579 faster 1 1.823864e+06 1.823868e+06 3.712
27 regular 10 92 992 53 3 0.268 faster 0 1.823873e+06 1.823877e+06 3.663
27 regular 10 93 993 68 3 0.294 faster 1 1.823881e+06 1.823885e+06 3.483
27 regular 10 94 994 67 3 0.243 faster 1 1.823888e+06 1.823892e+06 3.655
27 regular 10 95 995 53 3 0.276 slower 1 1.823896e+06 1.823900e+06 4.304
27 regular 10 96 996 66 3 0.527 faster 1 1.823902e+06 1.823907e+06 4.739
27 regular 10 97 997 66 3 0.179 faster 1 1.823909e+06 1.823913e+06 3.848
27 regular 10 98 998 55 3 0.599 slower 1 1.823915e+06 1.823919e+06 3.957
27 regular 10 99 999 55 3 0.340 faster 0 1.823921e+06 1.823925e+06 3.783
27 regular 10 100 1000 54 3 0.473 faster 0 1.823928e+06 1.823932e+06 3.843
