subNo condition blockNo trialNo trialID currentFrequency cueTargetInterval randomPreCueInterval response responseAccuracy startTime responseTime RT
6 regular 1 1 1 69 3 0.368 slower 0 1.129470e+06 1.129473e+06 3.791
6 regular 1 2 2 71 3 0.479 faster 1 1.129475e+06 1.129478e+06 3.712
6 regular 1 3 3 49 3 0.598 slower 1 1.129480e+06 1.129483e+06 3.621
6 regular 1 4 4 69 3 0.448 slower 0 1.129484e+06 1.129488e+06 4.030
6 regular 1 5 5 71 3 0.127 slower 0 1.129489e+06 1.129493e+06 3.762
6 regular 1 6 6 47 3 0.110 slower 1 1.129494e+06 1.129497e+06 3.728
6 regular 1 7 7 73 3 0.421 slower 0 1.129498e+06 1.129502e+06 3.577
6 regular 1 8 8 45 3 0.126 slower 1 1.129503e+06 1.129506e+06 3.576
6 regular 1 9 9 73 3 0.330 slower 0 1.129507e+06 1.129511e+06 3.472
6 regular 1 10 10 46 3 0.311 slower 1 1.129512e+06 1.129515e+06 3.607
6 regular 1 11 11 74 3 0.512 slower 0 1.129516e+06 1.129520e+06 3.668
6 regular 1 12 12 75 3 0.151 faster 1 1.129521e+06 1.129524e+06 3.519
6 regular 1 13 13 74 3 0.416 faster 1 1.129525e+06 1.129529e+06 3.558
6 regular 1 14 14 74 3 0.441 faster 1 1.129530e+06 1.129534e+06 3.514
6 regular 1 15 15 47 3 0.172 slower 1 1.129534e+06 1.129538e+06 3.646
6 regular 1 16 16 73 3 0.172 faster 1 1.129539e+06 1.129542e+06 3.569
6 regular 1 17 17 72 3 0.184 faster 1 1.129543e+06 1.129547e+06 3.550
6 regular 1 18 18 72 3 0.519 faster 1 1.129548e+06 1.129552e+06 4.120
6 regular 1 19 19 49 3 0.589 slower 1 1.129553e+06 1.129557e+06 3.550
6 regular 1 20 20 71 3 0.350 faster 1 1.129558e+06 1.129562e+06 3.806
6 regular 1 21 21 70 3 0.251 faster 1 1.129563e+06 1.129566e+06 3.735
6 regular 1 22 22 50 3 0.439 slower 1 1.129567e+06 1.129571e+06 3.972
6 regular 1 23 23 69 3 0.293 faster 1 1.129572e+06 1.129576e+06 3.990
6 regular 1 24 24 51 3 0.443 faster 0 1.129577e+06 1.129581e+06 3.665
6 regular 1 25 25 50 3 0.321 slower 1 1.129582e+06 1.129586e+06 3.680
6 regular 1 26 26 51 3 0.597 faster 0 1.129587e+06 1.129591e+06 3.749
6 regular 1 27 27 50 3 0.239 slower 1 1.129592e+06 1.129595e+06 3.750
6 regular 1 28 28 50 3 0.514 slower 1 1.129596e+06 1.129600e+06 3.595
6 regular 1 29 29 69 3 0.223 slower 0 1.129601e+06 1.129605e+06 3.649
6 regular 1 30 30 50 3 0.407 slower 1 1.129606e+06 1.129609e+06 3.832
6 regular 1 31 31 50 3 0.241 faster 0 1.129610e+06 1.129614e+06 3.868
6 regular 1 32 32 49 3 0.102 slower 1 1.129615e+06 1.129619e+06 3.605
6 regular 1 33 33 70 3 0.528 faster 1 1.129620e+06 1.129623e+06 3.442
6 regular 1 34 34 50 3 0.457 slower 1 1.129624e+06 1.129628e+06 3.809
6 regular 1 35 35 69 3 0.259 faster 1 1.129629e+06 1.129633e+06 3.718
6 regular 1 36 36 51 3 0.495 faster 0 1.129634e+06 1.129637e+06 3.578
6 regular 1 37 37 70 3 0.458 faster 1 1.129638e+06 1.129642e+06 3.598
6 regular 1 38 38 51 3 0.597 faster 0 1.129643e+06 1.129647e+06 3.592
6 regular 1 39 39 70 3 0.573 slower 0 1.129649e+06 1.129653e+06 4.154
6 regular 1 40 40 49 3 0.104 none 2 1.129653e+06 1.129659e+06 5.999
6 regular 1 41 41 49 3 0.383 none 2 1.129660e+06 1.129666e+06 6.000
6 regular 1 42 42 71 3 0.502 none 2 1.129668e+06 1.129674e+06 5.999
6 regular 1 43 43 49 3 0.451 none 2 1.129675e+06 1.129681e+06 5.999
6 regular 1 44 44 49 3 0.332 none 2 1.129682e+06 1.129688e+06 5.999
6 regular 1 45 45 71 3 0.326 none 2 1.129689e+06 1.129695e+06 5.999
6 regular 1 46 46 71 3 0.335 faster 1 1.129696e+06 1.129699e+06 3.718
6 regular 1 47 47 71 3 0.153 faster 1 1.129700e+06 1.129704e+06 3.736
6 regular 1 48 48 70 3 0.298 faster 1 1.129705e+06 1.129708e+06 3.597
6 regular 1 49 49 50 3 0.150 faster 0 1.129709e+06 1.129713e+06 3.630
6 regular 1 50 50 71 3 0.309 faster 1 1.129714e+06 1.129717e+06 3.648
6 regular 1 51 51 70 3 0.369 faster 1 1.129718e+06 1.129722e+06 3.645
6 regular 1 52 52 70 3 0.326 faster 1 1.129723e+06 1.129727e+06 4.057
6 regular 1 53 53 51 3 0.101 none 2 1.129728e+06 1.129734e+06 5.999
6 regular 1 54 54 51 3 0.230 faster 0 1.129735e+06 1.129739e+06 4.392
6 regular 1 55 55 50 3 0.143 slower 1 1.129740e+06 1.129744e+06 3.699
6 regular 1 56 56 50 3 0.178 slower 1 1.129744e+06 1.129748e+06 3.838
6 regular 1 57 57 69 3 0.514 faster 1 1.129749e+06 1.129753e+06 3.634
6 regular 1 58 58 51 3 0.426 faster 0 1.129754e+06 1.129758e+06 3.743
6 regular 1 59 59 70 3 0.126 faster 1 1.129759e+06 1.129762e+06 3.613
6 regular 1 60 60 69 3 0.460 faster 1 1.129763e+06 1.129767e+06 3.602
6 regular 1 61 61 51 3 0.557 faster 0 1.129768e+06 1.129772e+06 3.653
6 regular 1 62 62 50 3 0.335 faster 0 1.129773e+06 1.129776e+06 3.700
6 regular 1 63 63 49 3 0.590 slower 1 1.129778e+06 1.129781e+06 3.708
6 regular 1 64 64 50 3 0.164 faster 0 1.129782e+06 1.129786e+06 3.585
6 regular 1 65 65 71 3 0.537 faster 1 1.129787e+06 1.129791e+06 3.614
6 regular 1 66 66 49 3 0.262 slower 1 1.129791e+06 1.129795e+06 3.637
6 regular 1 67 67 50 3 0.186 faster 0 1.129796e+06 1.129799e+06 3.597
6 regular 1 68 68 71 3 0.189 faster 1 1.129800e+06 1.129804e+06 3.562
6 regular 1 69 69 49 3 0.104 faster 0 1.129805e+06 1.129808e+06 3.857
6 regular 1 70 70 48 3 0.186 slower 1 1.129809e+06 1.129813e+06 3.864
6 regular 1 71 71 71 3 0.218 faster 1 1.129814e+06 1.129818e+06 3.645
6 regular 1 72 72 49 3 0.376 slower 1 1.129819e+06 1.129822e+06 3.555
6 regular 1 73 73 70 3 0.191 slower 0 1.129823e+06 1.129827e+06 3.633
6 regular 1 74 74 49 3 0.240 slower 1 1.129828e+06 1.129831e+06 3.644
6 regular 1 75 75 49 3 0.357 slower 1 1.129832e+06 1.129836e+06 3.700
6 regular 1 76 76 50 3 0.105 slower 1 1.129837e+06 1.129840e+06 3.640
6 regular 1 77 77 70 3 0.512 slower 0 1.129841e+06 1.129845e+06 3.544
6 regular 1 78 78 71 3 0.585 faster 1 1.129846e+06 1.129850e+06 3.640
6 regular 1 79 79 70 3 0.379 faster 1 1.129851e+06 1.129854e+06 3.549
6 regular 1 80 80 50 3 0.134 slower 1 1.129855e+06 1.129859e+06 3.771
6 regular 1 81 81 69 3 0.247 faster 1 1.129860e+06 1.129863e+06 3.623
6 regular 1 82 82 51 3 0.545 slower 1 1.129865e+06 1.129869e+06 4.440
6 regular 1 83 83 52 3 0.305 slower 1 1.129870e+06 1.129874e+06 3.643
6 regular 1 84 84 52 3 0.179 slower 1 1.129874e+06 1.129878e+06 3.636
6 regular 1 85 85 67 3 0.321 slower 0 1.129879e+06 1.129883e+06 3.620
6 regular 1 86 86 52 3 0.341 faster 0 1.129884e+06 1.129887e+06 3.499
6 regular 1 87 87 51 3 0.514 slower 1 1.129888e+06 1.129892e+06 3.467
6 regular 1 88 88 51 3 0.520 faster 0 1.129893e+06 1.129896e+06 3.519
6 regular 1 89 89 50 3 0.361 slower 1 1.129897e+06 1.129901e+06 3.622
6 regular 1 90 90 69 3 0.290 faster 1 1.129902e+06 1.129906e+06 3.971
6 regular 1 91 91 69 3 0.149 faster 1 1.129907e+06 1.129910e+06 3.695
6 regular 1 92 92 68 3 0.143 faster 1 1.129911e+06 1.129915e+06 3.539
6 regular 1 93 93 52 3 0.219 slower 1 1.129916e+06 1.129919e+06 3.738
6 regular 1 94 94 67 3 0.374 slower 0 1.129920e+06 1.129925e+06 4.346
6 regular 1 95 95 68 3 0.240 slower 0 1.129926e+06 1.129929e+06 3.703
6 regular 1 96 96 69 3 0.491 slower 0 1.129930e+06 1.129934e+06 3.605
6 regular 1 97 97 50 3 0.411 slower 1 1.129935e+06 1.129939e+06 3.572
6 regular 1 98 98 70 3 0.385 faster 1 1.129940e+06 1.129943e+06 3.601
6 regular 1 99 99 69 3 0.446 faster 1 1.129944e+06 1.129948e+06 3.549
6 regular 1 100 100 69 3 0.209 faster 1 1.129949e+06 1.129952e+06 3.537
6 irregular 2 1 101 52 1.500000e+00 0.108 slower 1 1.130047e+06 1.130050e+06 2.428
6 irregular 2 2 102 68 3 0.529 faster 1 1.130051e+06 1.130055e+06 3.876
6 irregular 2 3 103 53 2.500000e+00 0.396 slower 1 1.130056e+06 1.130059e+06 3.174
6 irregular 2 4 104 67 2.500000e+00 0.548 slower 0 1.130060e+06 1.130063e+06 3.340
6 irregular 2 5 105 52 1 0.249 slower 1 1.130064e+06 1.130066e+06 1.763
6 irregular 2 6 106 53 1 0.119 faster 0 1.130067e+06 1.130069e+06 1.709
6 irregular 2 7 107 52 2.500000e+00 0.251 slower 1 1.130069e+06 1.130072e+06 2.982
6 irregular 2 8 108 52 1.500000e+00 0.420 slower 1 1.130074e+06 1.130076e+06 2.145
6 irregular 2 9 109 53 2 0.442 faster 0 1.130077e+06 1.130080e+06 2.748
6 irregular 2 10 110 68 3 0.158 slower 0 1.130080e+06 1.130084e+06 3.657
6 irregular 2 11 111 51 1 0.523 faster 0 1.130085e+06 1.130087e+06 1.668
6 irregular 2 12 112 50 2 0.571 faster 0 1.130088e+06 1.130091e+06 2.477
6 irregular 2 13 113 71 3 0.386 slower 0 1.130092e+06 1.130095e+06 3.638
6 irregular 2 14 114 48 3 0.573 slower 1 1.130096e+06 1.130100e+06 3.771
6 irregular 2 15 115 48 2 0.280 slower 1 1.130101e+06 1.130104e+06 2.609
6 irregular 2 16 116 71 1.500000e+00 0.290 faster 1 1.130105e+06 1.130107e+06 2.201
6 irregular 2 17 117 71 2 0.211 faster 1 1.130108e+06 1.130111e+06 2.779
6 irregular 2 18 118 70 1 0.497 faster 1 1.130112e+06 1.130113e+06 1.595
6 irregular 2 19 119 70 3 0.364 slower 0 1.130114e+06 1.130118e+06 3.487
6 irregular 2 20 120 71 3 0.557 slower 0 1.130119e+06 1.130123e+06 3.710
6 irregular 2 21 121 72 2.500000e+00 0.557 faster 1 1.130124e+06 1.130127e+06 3.274
6 irregular 2 22 122 49 3 0.597 faster 0 1.130129e+06 1.130132e+06 3.716
6 irregular 2 23 123 48 2.500000e+00 0.316 slower 1 1.130133e+06 1.130137e+06 3.429
6 irregular 2 24 124 72 1 0.514 none 2 1.130138e+06 1.130142e+06 4.000
6 irregular 2 25 125 72 2 0.282 slower 0 1.130143e+06 1.130146e+06 2.688
6 irregular 2 26 126 73 3 0.538 faster 1 1.130147e+06 1.130150e+06 3.540
6 irregular 2 27 127 48 1.500000e+00 0.125 slower 1 1.130151e+06 1.130153e+06 2.212
6 irregular 2 28 128 72 2.500000e+00 0.206 faster 1 1.130154e+06 1.130157e+06 3.081
6 irregular 2 29 129 71 2 0.169 slower 0 1.130158e+06 1.130161e+06 2.554
6 irregular 2 30 130 48 2.500000e+00 0.189 faster 0 1.130162e+06 1.130165e+06 3.065
6 irregular 2 31 131 47 3 0.254 slower 1 1.130166e+06 1.130169e+06 3.586
6 irregular 2 32 132 47 2.500000e+00 0.114 faster 0 1.130170e+06 1.130173e+06 3.186
6 irregular 2 33 133 46 2.500000e+00 0.359 slower 1 1.130174e+06 1.130177e+06 3.207
6 irregular 2 34 134 73 2 0.348 slower 0 1.130178e+06 1.130181e+06 2.712
6 irregular 2 35 135 74 3 0.326 faster 1 1.130182e+06 1.130186e+06 3.647
6 irregular 2 36 136 74 2 0.518 slower 0 1.130187e+06 1.130189e+06 2.597
6 irregular 2 37 137 45 3 0.365 slower 1 1.130190e+06 1.130194e+06 3.569
6 irregular 2 38 138 46 3 0.451 slower 1 1.130195e+06 1.130199e+06 3.881
6 irregular 2 39 139 46 2.500000e+00 0.405 faster 0 1.130200e+06 1.130204e+06 3.467
6 irregular 2 40 140 75 1 0.123 faster 1 1.130204e+06 1.130206e+06 1.732
6 irregular 2 41 141 46 2 0.463 slower 1 1.130207e+06 1.130210e+06 2.993
6 irregular 2 42 142 74 1 0.163 faster 1 1.130211e+06 1.130213e+06 1.753
6 irregular 2 43 143 73 1.500000e+00 0.192 faster 1 1.130214e+06 1.130216e+06 2.092
6 irregular 2 44 144 73 1.500000e+00 0.364 faster 1 1.130217e+06 1.130219e+06 2.067
6 irregular 2 45 145 72 2.500000e+00 0.117 slower 0 1.130220e+06 1.130223e+06 3.235
6 irregular 2 46 146 47 3 0.121 faster 0 1.130224e+06 1.130228e+06 3.853
6 irregular 2 47 147 46 2.500000e+00 0.571 slower 1 1.130229e+06 1.130232e+06 3.172
6 irregular 2 48 148 46 1 0.523 faster 0 1.130233e+06 1.130235e+06 1.814
6 irregular 2 49 149 45 1 0.435 slower 1 1.130236e+06 1.130238e+06 1.750
6 irregular 2 50 150 74 2.500000e+00 0.538 slower 0 1.130239e+06 1.130242e+06 3.142
6 irregular 2 51 151 45 1 0.590 slower 1 1.130243e+06 1.130245e+06 1.745
6 irregular 2 52 152 45 1 0.496 slower 1 1.130246e+06 1.130248e+06 1.600
6 irregular 2 53 153 74 1 0.190 faster 1 1.130249e+06 1.130250e+06 1.750
6 irregular 2 54 154 74 1.500000e+00 0.171 faster 1 1.130251e+06 1.130253e+06 2.086
6 irregular 2 55 155 73 2 0.593 slower 0 1.130255e+06 1.130257e+06 2.812
6 irregular 2 56 156 74 1 0.556 faster 1 1.130259e+06 1.130260e+06 1.768
6 irregular 2 57 157 74 2 0.554 faster 1 1.130262e+06 1.130264e+06 2.649
6 irregular 2 58 158 73 3 0.126 slower 0 1.130265e+06 1.130269e+06 3.631
6 irregular 2 59 159 74 1 0.146 faster 1 1.130270e+06 1.130271e+06 1.828
6 irregular 2 60 160 74 1.500000e+00 0.249 faster 1 1.130272e+06 1.130275e+06 2.227
6 irregular 2 61 161 47 2 0.460 slower 1 1.130276e+06 1.130279e+06 2.813
6 irregular 2 62 162 47 2.500000e+00 0.278 faster 0 1.130279e+06 1.130283e+06 3.218
6 irregular 2 63 163 46 1.500000e+00 0.119 faster 0 1.130283e+06 1.130286e+06 2.208
6 irregular 2 64 164 75 2.500000e+00 0.167 slower 0 1.130287e+06 1.130290e+06 3.184
6 irregular 2 65 165 44 1.500000e+00 0.259 faster 0 1.130291e+06 1.130293e+06 2.143
6 irregular 2 66 166 77 1 0.573 faster 1 1.130294e+06 1.130296e+06 1.795
6 irregular 2 67 167 44 2 0.550 slower 1 1.130297e+06 1.130300e+06 2.625
6 irregular 2 68 168 44 1 0.460 slower 1 1.130301e+06 1.130303e+06 1.837
6 irregular 2 69 169 75 1.500000e+00 0.440 faster 1 1.130304e+06 1.130306e+06 2.079
6 irregular 2 70 170 45 3 0.479 slower 1 1.130307e+06 1.130311e+06 3.632
6 irregular 2 71 171 74 1.500000e+00 0.130 faster 1 1.130311e+06 1.130314e+06 2.223
6 irregular 2 72 172 74 2.500000e+00 0.446 slower 0 1.130315e+06 1.130318e+06 3.192
6 irregular 2 73 173 45 1.500000e+00 0.123 slower 1 1.130319e+06 1.130321e+06 2.176
6 irregular 2 74 174 74 1.500000e+00 0.519 faster 1 1.130322e+06 1.130324e+06 2.090
6 irregular 2 75 175 74 3 0.411 faster 1 1.130325e+06 1.130329e+06 3.702
6 irregular 2 76 176 73 2.500000e+00 0.318 faster 1 1.130330e+06 1.130333e+06 3.044
6 irregular 2 77 177 73 3 0.121 faster 1 1.130334e+06 1.130337e+06 3.675
6 irregular 2 78 178 48 1.500000e+00 0.405 slower 1 1.130339e+06 1.130341e+06 2.328
6 irregular 2 79 179 72 2.500000e+00 0.515 faster 1 1.130342e+06 1.130345e+06 3.141
6 irregular 2 80 180 71 2 0.325 slower 0 1.130346e+06 1.130349e+06 2.713
6 irregular 2 81 181 72 1.500000e+00 0.187 faster 1 1.130350e+06 1.130352e+06 2.160
6 irregular 2 82 182 48 2 0.459 slower 1 1.130353e+06 1.130356e+06 2.712
6 irregular 2 83 183 49 2 0.521 faster 0 1.130357e+06 1.130360e+06 2.834
6 irregular 2 84 184 72 1 0.129 faster 1 1.130361e+06 1.130362e+06 1.664
6 irregular 2 85 185 72 2.500000e+00 0.202 faster 1 1.130363e+06 1.130366e+06 3.104
6 irregular 2 86 186 49 3 0.183 slower 1 1.130367e+06 1.130371e+06 3.673
6 irregular 2 87 187 49 2 0.115 slower 1 1.130372e+06 1.130374e+06 2.685
6 irregular 2 88 188 50 1.500000e+00 0.390 slower 1 1.130375e+06 1.130378e+06 2.278
6 irregular 2 89 189 50 1.500000e+00 0.230 faster 0 1.130379e+06 1.130381e+06 2.396
6 irregular 2 90 190 71 2 0.475 faster 1 1.130384e+06 1.130386e+06 2.813
6 irregular 2 91 191 50 2 0.481 faster 0 1.130387e+06 1.130390e+06 2.519
6 irregular 2 92 192 71 2 0.193 faster 1 1.130391e+06 1.130393e+06 2.541
6 irregular 2 93 193 49 1 0.112 none 2 1.130394e+06 1.130398e+06 3.999
6 irregular 2 94 194 71 1.500000e+00 0.540 faster 1 1.130399e+06 1.130401e+06 2.013
6 irregular 2 95 195 50 1.500000e+00 0.319 faster 0 1.130402e+06 1.130405e+06 2.217
6 irregular 2 96 196 49 3 0.561 slower 1 1.130406e+06 1.130409e+06 3.662
6 irregular 2 97 197 71 1 0.303 slower 0 1.130410e+06 1.130412e+06 1.640
6 irregular 2 98 198 48 1 0.253 faster 0 1.130413e+06 1.130415e+06 1.637
6 irregular 2 99 199 47 2.500000e+00 0.133 slower 1 1.130415e+06 1.130419e+06 3.218
6 irregular 2 100 200 48 3 0.292 slower 1 1.130420e+06 1.130423e+06 3.737
6 regular 3 1 201 72 2.500000e+00 0.589 faster 1 1.130503e+06 1.130507e+06 3.272
6 regular 3 2 202 49 2.500000e+00 0.342 slower 1 1.130508e+06 1.130511e+06 3.464
6 regular 3 3 203 49 2.500000e+00 0.501 slower 1 1.130512e+06 1.130515e+06 3.104
6 regular 3 4 204 70 2.500000e+00 0.350 faster 1 1.130516e+06 1.130519e+06 2.925
6 regular 3 5 205 50 2.500000e+00 0.395 faster 0 1.130520e+06 1.130523e+06 3.068
6 regular 3 6 206 71 2.500000e+00 0.509 faster 1 1.130524e+06 1.130527e+06 3.080
6 regular 3 7 207 50 2.500000e+00 0.424 slower 1 1.130529e+06 1.130532e+06 3.212
6 regular 3 8 208 70 2.500000e+00 0.273 faster 1 1.130533e+06 1.130536e+06 2.978
6 regular 3 9 209 69 2.500000e+00 0.193 slower 0 1.130536e+06 1.130540e+06 3.119
6 regular 3 10 210 50 2.500000e+00 0.460 faster 0 1.130541e+06 1.130544e+06 3.070
6 regular 3 11 211 49 2.500000e+00 0.472 slower 1 1.130545e+06 1.130548e+06 3.119
6 regular 3 12 212 71 2.500000e+00 0.303 faster 1 1.130549e+06 1.130552e+06 3.056
6 regular 3 13 213 50 2.500000e+00 0.203 slower 1 1.130553e+06 1.130556e+06 2.980
6 regular 3 14 214 70 2.500000e+00 0.482 faster 1 1.130557e+06 1.130560e+06 2.990
6 regular 3 15 215 51 2.500000e+00 0.214 slower 1 1.130561e+06 1.130564e+06 3.118
6 regular 3 16 216 69 2.500000e+00 0.403 faster 1 1.130565e+06 1.130568e+06 3.046
6 regular 3 17 217 68 2.500000e+00 0.207 slower 0 1.130569e+06 1.130572e+06 3.045
6 regular 3 18 218 69 2.500000e+00 0.145 faster 1 1.130573e+06 1.130576e+06 2.984
6 regular 3 19 219 51 2.500000e+00 0.269 faster 0 1.130577e+06 1.130580e+06 3.217
6 regular 3 20 220 70 2.500000e+00 0.258 faster 1 1.130581e+06 1.130584e+06 3.119
6 regular 3 21 221 51 2.500000e+00 0.261 slower 1 1.130585e+06 1.130588e+06 3.741
6 regular 3 22 222 51 2.500000e+00 0.564 slower 1 1.130590e+06 1.130593e+06 3.208
6 regular 3 23 223 52 2.500000e+00 0.301 slower 1 1.130594e+06 1.130597e+06 3.167
6 regular 3 24 224 68 2.500000e+00 0.520 faster 1 1.130598e+06 1.130601e+06 3.061
6 regular 3 25 225 53 2.500000e+00 0.169 slower 1 1.130602e+06 1.130605e+06 3.032
6 regular 3 26 226 53 2.500000e+00 0.257 faster 0 1.130606e+06 1.130609e+06 3.270
6 regular 3 27 227 68 2.500000e+00 0.400 faster 1 1.130610e+06 1.130613e+06 3.155
6 regular 3 28 228 53 2.500000e+00 0.593 faster 0 1.130615e+06 1.130618e+06 3.019
6 regular 3 29 229 52 2.500000e+00 0.550 slower 1 1.130619e+06 1.130622e+06 3.213
6 regular 3 30 230 52 2.500000e+00 0.395 slower 1 1.130623e+06 1.130627e+06 3.845
6 regular 3 31 231 67 2.500000e+00 0.114 faster 1 1.130628e+06 1.130631e+06 3.100
6 regular 3 32 232 53 2.500000e+00 0.390 slower 1 1.130632e+06 1.130635e+06 3.157
6 regular 3 33 233 54 2.500000e+00 0.364 slower 1 1.130636e+06 1.130639e+06 3.240
6 regular 3 34 234 66 2.500000e+00 0.231 slower 0 1.130640e+06 1.130643e+06 3.238
6 regular 3 35 235 53 2.500000e+00 0.294 slower 1 1.130644e+06 1.130647e+06 3.188
6 regular 3 36 236 54 2.500000e+00 0.519 slower 1 1.130649e+06 1.130652e+06 3.182
6 regular 3 37 237 54 2.500000e+00 0.187 slower 1 1.130653e+06 1.130656e+06 3.215
6 regular 3 38 238 55 2.500000e+00 0.243 faster 0 1.130657e+06 1.130660e+06 3.142
6 regular 3 39 239 66 2.500000e+00 0.109 faster 1 1.130661e+06 1.130664e+06 3.070
6 regular 3 40 240 54 2.500000e+00 0.458 slower 1 1.130665e+06 1.130668e+06 2.962
6 regular 3 41 241 55 2.500000e+00 0.258 faster 0 1.130669e+06 1.130672e+06 3.261
6 regular 3 42 242 66 2.500000e+00 0.133 faster 1 1.130673e+06 1.130676e+06 3.254
6 regular 3 43 243 66 2.500000e+00 0.358 faster 1 1.130677e+06 1.130680e+06 3.045
6 regular 3 44 244 55 2.500000e+00 0.145 faster 0 1.130681e+06 1.130684e+06 2.938
6 regular 3 45 245 66 2.500000e+00 0.236 faster 1 1.130685e+06 1.130688e+06 3.020
6 regular 3 46 246 54 2.500000e+00 0.535 faster 0 1.130689e+06 1.130692e+06 3.031
6 regular 3 47 247 67 2.500000e+00 0.352 faster 1 1.130693e+06 1.130696e+06 3.113
6 regular 3 48 248 66 2.500000e+00 0.211 faster 1 1.130697e+06 1.130700e+06 3.393
6 regular 3 49 249 66 2.500000e+00 0.267 faster 1 1.130702e+06 1.130705e+06 3.030
6 regular 3 50 250 55 2.500000e+00 0.145 faster 0 1.130706e+06 1.130709e+06 3.021
6 regular 3 51 251 54 2.500000e+00 0.258 faster 0 1.130710e+06 1.130713e+06 3.003
6 regular 3 52 252 53 2.500000e+00 0.412 slower 1 1.130714e+06 1.130717e+06 3.600
6 regular 3 53 253 67 2.500000e+00 0.391 slower 0 1.130718e+06 1.130721e+06 3.116
6 regular 3 54 254 68 2.500000e+00 0.144 faster 1 1.130722e+06 1.130725e+06 3.199
6 regular 3 55 255 67 2.500000e+00 0.150 faster 1 1.130726e+06 1.130729e+06 3.099
6 regular 3 56 256 53 2.500000e+00 0.136 faster 0 1.130730e+06 1.130733e+06 3.097
6 regular 3 57 257 68 2.500000e+00 0.132 faster 1 1.130734e+06 1.130737e+06 3.187
6 regular 3 58 258 53 2.500000e+00 0.374 faster 0 1.130738e+06 1.130741e+06 3.134
6 regular 3 59 259 68 2.500000e+00 0.433 faster 1 1.130742e+06 1.130745e+06 3.049
6 regular 3 60 260 52 2.500000e+00 0.326 faster 0 1.130746e+06 1.130749e+06 3.106
6 regular 3 61 261 51 2.500000e+00 0.347 faster 0 1.130750e+06 1.130754e+06 3.147
6 regular 3 62 262 50 2.500000e+00 0.503 slower 1 1.130755e+06 1.130758e+06 3.658
6 regular 3 63 263 51 2.500000e+00 0.247 slower 1 1.130760e+06 1.130763e+06 3.144
6 regular 3 64 264 69 2.500000e+00 0.135 faster 1 1.130764e+06 1.130767e+06 3.338
6 regular 3 65 265 68 2.500000e+00 0.406 faster 1 1.130768e+06 1.130771e+06 3.049
6 regular 3 66 266 68 2.500000e+00 0.383 faster 1 1.130773e+06 1.130776e+06 3.062
6 regular 3 67 267 67 2.500000e+00 0.589 slower 0 1.130777e+06 1.130780e+06 3.395
6 regular 3 68 268 52 2.500000e+00 0.581 faster 0 1.130781e+06 1.130785e+06 3.234
6 regular 3 69 269 69 2.500000e+00 0.158 faster 1 1.130785e+06 1.130789e+06 3.095
6 regular 3 70 270 51 2.500000e+00 0.414 slower 1 1.130790e+06 1.130793e+06 3.110
6 regular 3 71 271 68 2.500000e+00 0.555 faster 1 1.130794e+06 1.130797e+06 3.106
6 regular 3 72 272 52 2.500000e+00 0.180 faster 0 1.130798e+06 1.130801e+06 3.118
6 regular 3 73 273 51 2.500000e+00 0.237 faster 0 1.130802e+06 1.130805e+06 3.270
6 regular 3 74 274 70 2.500000e+00 0.170 faster 1 1.130806e+06 1.130809e+06 3.097
6 regular 3 75 275 51 2.500000e+00 0.557 faster 0 1.130810e+06 1.130813e+06 3.210
6 regular 3 76 276 50 2.500000e+00 0.431 slower 1 1.130815e+06 1.130818e+06 3.489
6 regular 3 77 277 70 2.500000e+00 0.402 slower 0 1.130819e+06 1.130822e+06 3.197
6 regular 3 78 278 71 2.500000e+00 0.442 faster 1 1.130823e+06 1.130826e+06 3.051
6 regular 3 79 279 70 2.500000e+00 0.562 faster 1 1.130828e+06 1.130831e+06 3.332
6 regular 3 80 280 50 2.500000e+00 0.461 slower 1 1.130832e+06 1.130835e+06 3.143
6 regular 3 81 281 51 2.500000e+00 0.541 faster 0 1.130836e+06 1.130840e+06 3.198
6 regular 3 82 282 70 2.500000e+00 0.428 slower 0 1.130841e+06 1.130844e+06 3.280
6 regular 3 83 283 71 2.500000e+00 0.414 faster 1 1.130845e+06 1.130848e+06 3.171
6 regular 3 84 284 49 2.500000e+00 0.108 slower 1 1.130849e+06 1.130852e+06 3.195
6 regular 3 85 285 70 2.500000e+00 0.116 faster 1 1.130853e+06 1.130856e+06 3.277
6 regular 3 86 286 50 2.500000e+00 0.327 faster 0 1.130857e+06 1.130861e+06 3.277
6 regular 3 87 287 49 2.500000e+00 0.443 faster 0 1.130862e+06 1.130865e+06 2.952
6 regular 3 88 288 72 2.500000e+00 0.165 faster 1 1.130865e+06 1.130869e+06 3.557
6 regular 3 89 289 71 2.500000e+00 0.440 faster 1 1.130870e+06 1.130873e+06 3.206
6 regular 3 90 290 49 2.500000e+00 0.200 faster 0 1.130874e+06 1.130877e+06 3.225
6 regular 3 91 291 72 2.500000e+00 0.374 faster 1 1.130878e+06 1.130881e+06 3.052
6 regular 3 92 292 71 2.500000e+00 0.131 faster 1 1.130882e+06 1.130885e+06 3.067
6 regular 3 93 293 71 2.500000e+00 0.447 faster 1 1.130886e+06 1.130889e+06 3.022
6 regular 3 94 294 70 2.500000e+00 0.260 faster 1 1.130890e+06 1.130893e+06 3.003
6 regular 3 95 295 70 2.500000e+00 0.301 faster 1 1.130894e+06 1.130897e+06 3.009
6 regular 3 96 296 51 2.500000e+00 0.160 faster 0 1.130898e+06 1.130901e+06 3.006
6 regular 3 97 297 70 2.500000e+00 0.415 faster 1 1.130902e+06 1.130905e+06 2.968
6 regular 3 98 298 70 2.500000e+00 0.224 faster 1 1.130906e+06 1.130909e+06 3.047
6 regular 3 99 299 51 2.500000e+00 0.232 faster 0 1.130910e+06 1.130913e+06 3.075
6 regular 3 100 300 70 2.500000e+00 0.320 faster 1 1.130914e+06 1.130917e+06 2.995
6 irregular 4 1 301 70 3 0.167 slower 0 1.130972e+06 1.130976e+06 4.113
6 irregular 4 2 302 49 1.500000e+00 0.101 slower 1 1.130977e+06 1.130980e+06 2.416
6 irregular 4 3 303 50 2.500000e+00 0.288 faster 0 1.130981e+06 1.130984e+06 3.282
6 irregular 4 4 304 49 1 0.564 slower 1 1.130985e+06 1.130987e+06 1.746
6 irregular 4 5 305 71 1.500000e+00 0.234 faster 1 1.130988e+06 1.130990e+06 2.278
6 irregular 4 6 306 70 2 0.196 faster 1 1.130991e+06 1.130994e+06 2.623
6 irregular 4 7 307 50 3 0.156 faster 0 1.130994e+06 1.130998e+06 3.559
6 irregular 4 8 308 71 1.500000e+00 0.457 faster 1 1.130999e+06 1.131001e+06 2.100
6 irregular 4 9 309 50 3 0.243 faster 0 1.131002e+06 1.131006e+06 3.486
6 irregular 4 10 310 49 1.500000e+00 0.115 slower 1 1.131006e+06 1.131009e+06 2.383
6 irregular 4 11 311 71 1.500000e+00 0.332 faster 1 1.131010e+06 1.131012e+06 2.062
6 irregular 4 12 312 50 2 0.589 faster 0 1.131014e+06 1.131016e+06 2.463
6 irregular 4 13 313 71 2 0.265 faster 1 1.131017e+06 1.131020e+06 2.450
6 irregular 4 14 314 71 1 0.412 faster 1 1.131021e+06 1.131022e+06 1.530
6 irregular 4 15 315 70 3 0.333 slower 0 1.131023e+06 1.131027e+06 3.435
6 irregular 4 16 316 49 2 0.320 slower 1 1.131028e+06 1.131030e+06 2.724
6 irregular 4 17 317 49 2 0.539 slower 1 1.131031e+06 1.131034e+06 2.879
6 irregular 4 18 318 70 2 0.148 slower 0 1.131035e+06 1.131038e+06 2.534
6 irregular 4 19 319 71 3 0.366 slower 0 1.131039e+06 1.131042e+06 3.388
6 irregular 4 20 320 72 1.500000e+00 0.263 faster 1 1.131043e+06 1.131045e+06 2.030
6 irregular 4 21 321 48 1 0.310 faster 0 1.131046e+06 1.131048e+06 1.515
6 irregular 4 22 322 73 1 0.187 faster 1 1.131048e+06 1.131050e+06 1.597
6 irregular 4 23 323 72 2 0.312 faster 1 1.131051e+06 1.131053e+06 2.441
6 irregular 4 24 324 72 1 0.111 faster 1 1.131054e+06 1.131056e+06 1.556
6 irregular 4 25 325 71 1 0.544 faster 1 1.131057e+06 1.131059e+06 1.688
6 irregular 4 26 326 71 1.500000e+00 0.202 slower 0 1.131059e+06 1.131062e+06 2.159
6 irregular 4 27 327 48 2 0.191 faster 0 1.131063e+06 1.131065e+06 2.446
6 irregular 4 28 328 73 2.500000e+00 0.374 slower 0 1.131066e+06 1.131069e+06 3.097
6 irregular 4 29 329 74 3 0.536 faster 1 1.131070e+06 1.131074e+06 3.525
6 irregular 4 30 330 73 2 0.268 faster 1 1.131075e+06 1.131077e+06 2.552
6 irregular 4 31 331 73 3 0.106 slower 0 1.131078e+06 1.131081e+06 3.395
6 irregular 4 32 332 46 3 0.447 slower 1 1.131083e+06 1.131086e+06 3.771
6 irregular 4 33 333 47 1.500000e+00 0.373 slower 1 1.131087e+06 1.131089e+06 2.100
6 irregular 4 34 334 73 2.500000e+00 0.455 faster 1 1.131091e+06 1.131093e+06 2.885
6 irregular 4 35 335 48 1 0.113 faster 0 1.131094e+06 1.131096e+06 1.743
6 irregular 4 36 336 47 2 0.512 faster 0 1.131097e+06 1.131100e+06 2.533
6 irregular 4 37 337 46 2 0.230 slower 1 1.131101e+06 1.131103e+06 2.447
6 irregular 4 38 338 46 2.500000e+00 0.246 faster 0 1.131104e+06 1.131107e+06 2.974
6 irregular 4 39 339 75 2.500000e+00 0.432 faster 1 1.131108e+06 1.131111e+06 3.110
6 irregular 4 40 340 46 2.500000e+00 0.179 slower 1 1.131112e+06 1.131115e+06 3.004
6 irregular 4 41 341 46 3 0.469 slower 1 1.131116e+06 1.131120e+06 3.783
6 irregular 4 42 342 47 2.500000e+00 0.232 faster 0 1.131121e+06 1.131124e+06 3.407
6 irregular 4 43 343 46 2.500000e+00 0.524 slower 1 1.131125e+06 1.131128e+06 2.993
6 irregular 4 44 344 74 1 0.534 faster 1 1.131130e+06 1.131131e+06 1.646
6 irregular 4 45 345 47 3 0.129 slower 1 1.131132e+06 1.131135e+06 3.461
6 irregular 4 46 346 73 2 0.312 faster 1 1.131136e+06 1.131139e+06 2.525
6 irregular 4 47 347 72 3 0.353 faster 1 1.131140e+06 1.131144e+06 3.521
6 irregular 4 48 348 48 1.500000e+00 0.256 faster 0 1.131144e+06 1.131147e+06 2.108
6 irregular 4 49 349 47 1.500000e+00 0.211 faster 0 1.131147e+06 1.131149e+06 2.017
6 irregular 4 50 350 46 2 0.485 slower 1 1.131151e+06 1.131153e+06 2.461
6 irregular 4 51 351 47 2.500000e+00 0.290 none 2 1.131154e+06 1.131159e+06 5.499
6 irregular 4 52 352 47 1.500000e+00 0.367 slower 1 1.131161e+06 1.131163e+06 2.337
6 irregular 4 53 353 47 1 0.209 none 2 1.131164e+06 1.131168e+06 3.999
6 irregular 4 54 354 73 3 0.281 faster 1 1.131169e+06 1.131172e+06 3.672
6 irregular 4 55 355 72 2 0.280 faster 1 1.131173e+06 1.131176e+06 2.672
6 irregular 4 56 356 48 3 0.506 faster 0 1.131177e+06 1.131181e+06 3.850
6 irregular 4 57 357 47 3 0.441 slower 1 1.131182e+06 1.131186e+06 3.647
6 irregular 4 58 358 48 1 0.331 faster 0 1.131187e+06 1.131189e+06 2.134
6 irregular 4 59 359 73 1.500000e+00 0.108 faster 1 1.131190e+06 1.131192e+06 1.989
6 irregular 4 60 360 73 2 0.407 faster 1 1.131193e+06 1.131195e+06 2.642
6 irregular 4 61 361 72 3 0.158 slower 0 1.131196e+06 1.131200e+06 3.460
6 irregular 4 62 362 47 3 0.411 slower 1 1.131201e+06 1.131204e+06 3.711
6 irregular 4 63 363 47 1.500000e+00 0.310 faster 0 1.131205e+06 1.131208e+06 2.153
6 irregular 4 64 364 46 2.500000e+00 0.116 faster 0 1.131208e+06 1.131211e+06 3.006
6 irregular 4 65 365 45 2.500000e+00 0.397 slower 1 1.131212e+06 1.131216e+06 3.227
6 irregular 4 66 366 46 2 0.361 slower 1 1.131217e+06 1.131219e+06 2.678
6 irregular 4 67 367 46 1 0.587 slower 1 1.131221e+06 1.131222e+06 1.816
6 irregular 4 68 368 47 1.500000e+00 0.258 slower 1 1.131223e+06 1.131225e+06 2.041
6 irregular 4 69 369 73 1 0.191 slower 0 1.131226e+06 1.131228e+06 1.565
6 irregular 4 70 370 74 1 0.401 faster 1 1.131229e+06 1.131230e+06 1.467
6 irregular 4 71 371 47 2.500000e+00 0.340 slower 1 1.131231e+06 1.131234e+06 3.049
6 irregular 4 72 372 73 1 0.492 slower 0 1.131236e+06 1.131237e+06 1.613
6 irregular 4 73 373 74 1.500000e+00 0.247 faster 1 1.131238e+06 1.131240e+06 2.021
6 irregular 4 74 374 73 2.500000e+00 0.131 faster 1 1.131241e+06 1.131244e+06 3.088
6 irregular 4 75 375 73 2.500000e+00 0.446 faster 1 1.131245e+06 1.131248e+06 3.059
6 irregular 4 76 376 48 1 0.202 faster 0 1.131249e+06 1.131251e+06 1.564
6 irregular 4 77 377 73 1 0.576 faster 1 1.131252e+06 1.131253e+06 1.502
6 irregular 4 78 378 47 1 0.486 faster 0 1.131254e+06 1.131256e+06 1.666
6 irregular 4 79 379 74 3 0.159 faster 1 1.131257e+06 1.131261e+06 3.589
6 irregular 4 80 380 73 2.500000e+00 0.464 faster 1 1.131262e+06 1.131265e+06 3.019
6 irregular 4 81 381 73 2.500000e+00 0.369 faster 1 1.131267e+06 1.131270e+06 3.206
6 irregular 4 82 382 48 1.500000e+00 0.144 faster 0 1.131271e+06 1.131273e+06 2.206
6 irregular 4 83 383 73 1 0.246 faster 1 1.131274e+06 1.131275e+06 1.736
6 irregular 4 84 384 73 1.500000e+00 0.115 slower 0 1.131276e+06 1.131278e+06 2.071
6 irregular 4 85 385 74 2 0.524 faster 1 1.131279e+06 1.131282e+06 2.640
6 irregular 4 86 386 47 3 0.395 slower 1 1.131283e+06 1.131287e+06 3.617
6 irregular 4 87 387 47 2 0.151 slower 1 1.131288e+06 1.131290e+06 2.596
6 irregular 4 88 388 48 3 0.445 slower 1 1.131291e+06 1.131295e+06 3.633
6 irregular 4 89 389 48 2 0.183 slower 1 1.131296e+06 1.131298e+06 2.523
6 irregular 4 90 390 49 1.500000e+00 0.160 faster 0 1.131299e+06 1.131301e+06 2.114
6 irregular 4 91 391 48 1 0.113 faster 0 1.131302e+06 1.131304e+06 1.724
6 irregular 4 92 392 73 2.500000e+00 0.564 faster 1 1.131305e+06 1.131308e+06 3.208
6 irregular 4 93 393 73 2 0.471 faster 1 1.131310e+06 1.131312e+06 2.480
6 irregular 4 94 394 72 1.500000e+00 0.373 faster 1 1.131313e+06 1.131315e+06 2.039
6 irregular 4 95 395 48 2.500000e+00 0.591 faster 0 1.131317e+06 1.131320e+06 3.055
6 irregular 4 96 396 47 1 0.253 faster 0 1.131321e+06 1.131323e+06 1.910
6 irregular 4 97 397 74 2.500000e+00 0.465 faster 1 1.131324e+06 1.131327e+06 2.969
6 irregular 4 98 398 73 2.500000e+00 0.274 faster 1 1.131328e+06 1.131331e+06 2.958
6 irregular 4 99 399 73 1.500000e+00 0.192 faster 1 1.131332e+06 1.131334e+06 1.961
6 irregular 4 100 400 72 3 0.146 faster 1 1.131335e+06 1.131338e+06 3.493
6 regular 5 1 401 72 1.500000e+00 0.401 faster 1 1.131396e+06 1.131398e+06 2.086
6 regular 5 2 402 71 1.500000e+00 0.374 faster 1 1.131399e+06 1.131401e+06 2.051
6 regular 5 3 403 71 1.500000e+00 0.432 faster 1 1.131402e+06 1.131404e+06 2.031
6 regular 5 4 404 50 1.500000e+00 0.360 slower 1 1.131405e+06 1.131407e+06 1.996
6 regular 5 5 405 50 1.500000e+00 0.557 slower 1 1.131408e+06 1.131410e+06 1.978
6 regular 5 6 406 51 1.500000e+00 0.119 slower 1 1.131411e+06 1.131413e+06 2.151
6 regular 5 7 407 51 1.500000e+00 0.143 slower 1 1.131414e+06 1.131416e+06 2.177
6 regular 5 8 408 68 1.500000e+00 0.343 slower 0 1.131417e+06 1.131419e+06 2.013
6 regular 5 9 409 69 1.500000e+00 0.297 faster 1 1.131420e+06 1.131422e+06 2.071
6 regular 5 10 410 51 1.500000e+00 0.138 faster 0 1.131423e+06 1.131425e+06 1.979
6 regular 5 11 411 50 1.500000e+00 0.257 faster 0 1.131426e+06 1.131428e+06 1.944
6 regular 5 12 412 71 1.500000e+00 0.223 faster 1 1.131429e+06 1.131431e+06 1.977
6 regular 5 13 413 50 1.500000e+00 0.466 slower 1 1.131432e+06 1.131434e+06 2.039
6 regular 5 14 414 70 1.500000e+00 0.579 faster 1 1.131435e+06 1.131437e+06 2.000
6 regular 5 15 415 51 1.500000e+00 0.462 faster 0 1.131439e+06 1.131441e+06 1.950
6 regular 5 16 416 70 1.500000e+00 0.499 faster 1 1.131442e+06 1.131444e+06 1.899
6 regular 5 17 417 70 1.500000e+00 0.409 faster 1 1.131445e+06 1.131447e+06 1.913
6 regular 5 18 418 69 1.500000e+00 0.124 slower 0 1.131447e+06 1.131450e+06 2.099
6 regular 5 19 419 70 1.500000e+00 0.106 faster 1 1.131450e+06 1.131452e+06 1.970
6 regular 5 20 420 70 1.500000e+00 0.290 faster 1 1.131453e+06 1.131455e+06 1.982
6 regular 5 21 421 69 1.500000e+00 0.583 faster 1 1.131456e+06 1.131458e+06 1.990
6 regular 5 22 422 69 1.500000e+00 0.296 faster 1 1.131459e+06 1.131461e+06 1.942
6 regular 5 23 423 68 1.500000e+00 0.146 faster 1 1.131462e+06 1.131464e+06 2.006
6 regular 5 24 424 52 1.500000e+00 0.497 faster 0 1.131465e+06 1.131467e+06 1.997
6 regular 5 25 425 51 1.500000e+00 0.422 slower 1 1.131468e+06 1.131470e+06 2.090
6 regular 5 26 426 52 1.500000e+00 0.243 faster 0 1.131471e+06 1.131473e+06 2.065
6 regular 5 27 427 51 1.500000e+00 0.135 slower 1 1.131474e+06 1.131476e+06 2.087
6 regular 5 28 428 51 1.500000e+00 0.592 faster 0 1.131477e+06 1.131479e+06 1.934
6 regular 5 29 429 50 1.500000e+00 0.494 faster 0 1.131480e+06 1.131483e+06 2.273
6 regular 5 30 430 49 1.500000e+00 0.213 slower 1 1.131484e+06 1.131486e+06 2.111
6 regular 5 31 431 50 1.500000e+00 0.203 faster 0 1.131487e+06 1.131489e+06 2.072
6 regular 5 32 432 49 1.500000e+00 0.569 faster 0 1.131490e+06 1.131492e+06 1.958
6 regular 5 33 433 48 1.500000e+00 0.444 slower 1 1.131493e+06 1.131495e+06 1.943
6 regular 5 34 434 48 1.500000e+00 0.404 slower 1 1.131496e+06 1.131498e+06 1.973
6 regular 5 35 435 71 1.500000e+00 0.579 faster 1 1.131499e+06 1.131501e+06 1.951
6 regular 5 36 436 49 1.500000e+00 0.368 faster 0 1.131502e+06 1.131504e+06 1.877
6 regular 5 37 437 72 1.500000e+00 0.217 faster 1 1.131505e+06 1.131507e+06 2.234
6 regular 5 38 438 49 1.500000e+00 0.540 faster 0 1.131508e+06 1.131510e+06 2.140
6 regular 5 39 439 72 1.500000e+00 0.460 faster 1 1.131511e+06 1.131513e+06 2.041
6 regular 5 40 440 48 1.500000e+00 0.140 slower 1 1.131514e+06 1.131516e+06 2.043
6 regular 5 41 441 49 1.500000e+00 0.109 none 2 1.131518e+06 1.131523e+06 4.499
6 regular 5 42 442 71 1.500000e+00 0.113 faster 1 1.131524e+06 1.131526e+06 2.037
6 regular 5 43 443 71 1.500000e+00 0.572 faster 1 1.131527e+06 1.131529e+06 2.002
6 regular 5 44 444 70 1.500000e+00 0.520 faster 1 1.131530e+06 1.131532e+06 2.031
6 regular 5 45 445 70 1.500000e+00 0.107 faster 1 1.131533e+06 1.131535e+06 2.115
6 regular 5 46 446 51 1.500000e+00 0.563 faster 0 1.131536e+06 1.131538e+06 1.994
6 regular 5 47 447 50 1.500000e+00 0.409 slower 1 1.131539e+06 1.131541e+06 2.069
6 regular 5 48 448 70 1.500000e+00 0.288 faster 1 1.131542e+06 1.131544e+06 1.953
6 regular 5 49 449 51 1.500000e+00 0.585 faster 0 1.131545e+06 1.131548e+06 2.246
6 regular 5 50 450 50 1.500000e+00 0.528 slower 1 1.131549e+06 1.131551e+06 1.978
6 regular 5 51 451 70 1.500000e+00 0.362 faster 1 1.131552e+06 1.131554e+06 2.007
6 regular 5 52 452 51 1.500000e+00 0.375 faster 0 1.131555e+06 1.131557e+06 1.929
6 regular 5 53 453 70 1.500000e+00 0.146 faster 1 1.131558e+06 1.131560e+06 2.011
6 regular 5 54 454 50 1.500000e+00 0.423 slower 1 1.131561e+06 1.131563e+06 2.343
6 regular 5 55 455 51 1.500000e+00 0.121 faster 0 1.131564e+06 1.131566e+06 2.027
6 regular 5 56 456 50 1.500000e+00 0.143 faster 0 1.131567e+06 1.131569e+06 2.106
6 regular 5 57 457 49 1.500000e+00 0.350 slower 1 1.131570e+06 1.131572e+06 2.215
6 regular 5 58 458 71 1.500000e+00 0.336 faster 1 1.131573e+06 1.131575e+06 2.056
6 regular 5 59 459 70 1.500000e+00 0.182 faster 1 1.131576e+06 1.131578e+06 1.921
6 regular 5 60 460 70 1.500000e+00 0.482 faster 1 1.131579e+06 1.131581e+06 2.063
6 regular 5 61 461 69 1.500000e+00 0.437 faster 1 1.131582e+06 1.131584e+06 1.886
6 regular 5 62 462 69 1.500000e+00 0.249 faster 1 1.131585e+06 1.131587e+06 1.959
6 regular 5 63 463 52 1.500000e+00 0.323 faster 0 1.131588e+06 1.131590e+06 1.971
6 regular 5 64 464 51 1.500000e+00 0.542 slower 1 1.131592e+06 1.131594e+06 2.011
6 regular 5 65 465 69 1.500000e+00 0.547 faster 1 1.131596e+06 1.131598e+06 2.078
6 regular 5 66 466 52 1.500000e+00 0.276 faster 0 1.131599e+06 1.131601e+06 2.018
6 regular 5 67 467 69 1.500000e+00 0.317 faster 1 1.131602e+06 1.131604e+06 2.036
6 regular 5 68 468 51 1.500000e+00 0.462 slower 1 1.131605e+06 1.131607e+06 2.156
6 regular 5 69 469 68 1.500000e+00 0.443 faster 1 1.131608e+06 1.131610e+06 2.032
6 regular 5 70 470 68 1.500000e+00 0.156 faster 1 1.131611e+06 1.131613e+06 1.969
6 regular 5 71 471 67 1.500000e+00 0.205 faster 1 1.131614e+06 1.131616e+06 1.923
6 regular 5 72 472 67 1.500000e+00 0.277 faster 1 1.131619e+06 1.131622e+06 2.164
6 regular 5 73 473 66 1.500000e+00 0.374 faster 1 1.131623e+06 1.131625e+06 2.011
6 regular 5 74 474 66 1.500000e+00 0.393 faster 1 1.131626e+06 1.131628e+06 1.944
6 regular 5 75 475 65 1.500000e+00 0.204 faster 1 1.131629e+06 1.131631e+06 2.291
6 regular 5 76 476 55 1.500000e+00 0.524 slower 1 1.131632e+06 1.131634e+06 2.183
6 regular 5 77 477 56 1.500000e+00 0.208 faster 0 1.131636e+06 1.131638e+06 2.029
6 regular 5 78 478 65 1.500000e+00 0.224 faster 1 1.131639e+06 1.131642e+06 2.303
6 regular 5 79 479 55 1.500000e+00 0.306 faster 0 1.131644e+06 1.131646e+06 2.116
6 regular 5 80 480 66 1.500000e+00 0.571 faster 1 1.131647e+06 1.131650e+06 2.314
6 regular 5 81 481 65 1.500000e+00 0.209 faster 1 1.131651e+06 1.131653e+06 2.020
6 regular 5 82 482 55 1.500000e+00 0.292 faster 0 1.131655e+06 1.131657e+06 2.130
6 regular 5 83 483 54 1.500000e+00 0.116 faster 0 1.131657e+06 1.131660e+06 2.137
6 regular 5 84 484 53 1.500000e+00 0.436 faster 0 1.131661e+06 1.131663e+06 1.994
6 regular 5 85 485 68 1.500000e+00 0.413 slower 0 1.131666e+06 1.131668e+06 1.909
6 regular 5 86 486 51 1.500000e+00 0.562 faster 0 1.131669e+06 1.131671e+06 1.965
6 regular 5 87 487 50 1.500000e+00 0.348 faster 0 1.131672e+06 1.131674e+06 1.943
6 regular 5 88 488 71 1.500000e+00 0.110 faster 1 1.131675e+06 1.131677e+06 2.095
6 regular 5 89 489 70 1.500000e+00 0.359 faster 1 1.131678e+06 1.131680e+06 2.007
6 regular 5 90 490 50 1.500000e+00 0.162 faster 0 1.131682e+06 1.131684e+06 1.990
6 regular 5 91 491 49 1.500000e+00 0.562 slower 1 1.131687e+06 1.131689e+06 2.017
6 regular 5 92 492 50 1.500000e+00 0.357 faster 0 1.131690e+06 1.131692e+06 2.130
6 regular 5 93 493 49 1.500000e+00 0.201 faster 0 1.131693e+06 1.131695e+06 2.050
6 regular 5 94 494 72 1.500000e+00 0.263 faster 1 1.131697e+06 1.131699e+06 2.056
6 regular 5 95 495 72 1.500000e+00 0.244 faster 1 1.131704e+06 1.131706e+06 2.136
6 regular 5 96 496 49 1.500000e+00 0.454 slower 1 1.131708e+06 1.131710e+06 2.232
6 regular 5 97 497 71 1.500000e+00 0.496 faster 1 1.131711e+06 1.131714e+06 2.145
6 regular 5 98 498 50 1.500000e+00 0.204 faster 0 1.131714e+06 1.131716e+06 2.020
6 regular 5 99 499 71 1.500000e+00 0.474 faster 1 1.131720e+06 1.131722e+06 2.088
6 regular 5 100 500 71 1.500000e+00 0.442 faster 1 1.131724e+06 1.131726e+06 2.007
6 irregular 6 1 501 72 3 0.152 faster 1 1.301413e+06 1.301417e+06 3.591
6 irregular 6 2 502 48 1 0.122 faster 0 1.301417e+06 1.301419e+06 1.704
6 irregular 6 3 503 46 2.500000e+00 0.188 slower 1 1.301420e+06 1.301423e+06 2.965
6 irregular 6 4 504 72 2.500000e+00 0.287 faster 1 1.301424e+06 1.301427e+06 2.982
6 irregular 6 5 505 48 1 0.240 faster 0 1.301428e+06 1.301429e+06 1.571
6 irregular 6 6 506 74 2 0.485 faster 1 1.301431e+06 1.301433e+06 2.711
6 irregular 6 7 507 48 3 0.504 slower 1 1.301434e+06 1.301438e+06 3.661
6 irregular 6 8 508 72 1.500000e+00 0.579 faster 1 1.301439e+06 1.301441e+06 1.967
6 irregular 6 9 509 71 1.500000e+00 0.324 faster 1 1.301442e+06 1.301444e+06 1.979
6 irregular 6 10 510 71 2 0.393 faster 1 1.301445e+06 1.301448e+06 2.451
6 irregular 6 11 511 70 3 0.284 faster 1 1.301449e+06 1.301452e+06 3.495
6 irregular 6 12 512 50 3 0.488 faster 0 1.301453e+06 1.301457e+06 3.464
6 irregular 6 13 513 71 3 0.352 faster 1 1.301458e+06 1.301461e+06 3.530
6 irregular 6 14 514 50 2 0.260 faster 0 1.301462e+06 1.301465e+06 2.581
6 irregular 6 15 515 71 2 0.471 faster 1 1.301466e+06 1.301468e+06 2.550
6 irregular 6 16 516 71 1.500000e+00 0.415 faster 1 1.301470e+06 1.301472e+06 2.036
6 irregular 6 17 517 70 2 0.291 faster 1 1.301473e+06 1.301475e+06 2.505
6 irregular 6 18 518 50 1.500000e+00 0.289 faster 0 1.301476e+06 1.301478e+06 2.021
6 irregular 6 19 519 71 2.500000e+00 0.493 faster 1 1.301479e+06 1.301482e+06 2.976
6 irregular 6 20 520 50 1 0.362 faster 0 1.301483e+06 1.301485e+06 1.547
6 irregular 6 21 521 49 1.500000e+00 0.114 faster 0 1.301486e+06 1.301487e+06 1.894
6 irregular 6 22 522 48 1.500000e+00 0.524 faster 0 1.301489e+06 1.301491e+06 2.061
6 irregular 6 23 523 47 2 0.247 slower 1 1.301492e+06 1.301494e+06 2.551
6 irregular 6 24 524 73 1.500000e+00 0.351 faster 1 1.301495e+06 1.301497e+06 1.969
6 irregular 6 25 525 48 1 0.451 faster 0 1.301498e+06 1.301500e+06 1.498
6 irregular 6 26 526 73 3 0.184 faster 1 1.301501e+06 1.301504e+06 3.526
6 irregular 6 27 527 47 2.500000e+00 0.517 slower 1 1.301505e+06 1.301509e+06 3.269
6 irregular 6 28 528 48 2 0.462 faster 0 1.301510e+06 1.301513e+06 2.447
6 irregular 6 29 529 47 1 0.582 faster 0 1.301514e+06 1.301516e+06 1.756
6 irregular 6 30 530 74 1 0.206 faster 1 1.301517e+06 1.301518e+06 1.546
6 irregular 6 31 531 74 1.500000e+00 0.505 faster 1 1.301519e+06 1.301521e+06 2.018
6 irregular 6 32 532 47 1.500000e+00 0.591 slower 1 1.301523e+06 1.301525e+06 2.106
6 irregular 6 33 533 47 2 0.343 faster 0 1.301526e+06 1.301528e+06 2.381
6 irregular 6 34 534 46 2 0.589 faster 0 1.301529e+06 1.301532e+06 2.514
6 irregular 6 35 535 45 2 0.509 slower 1 1.301533e+06 1.301535e+06 2.445
6 irregular 6 36 536 46 3 0.453 slower 1 1.301537e+06 1.301540e+06 3.678
6 irregular 6 37 537 46 1 0.562 slower 1 1.301541e+06 1.301543e+06 1.695
6 irregular 6 38 538 47 2.500000e+00 0.129 slower 1 1.301544e+06 1.301547e+06 3.234
6 irregular 6 39 539 73 3 0.361 faster 1 1.301549e+06 1.301552e+06 3.597
6 irregular 6 40 540 48 2 0.489 slower 1 1.301553e+06 1.301556e+06 2.601
6 irregular 6 41 541 72 1 0.489 faster 1 1.301557e+06 1.301559e+06 1.618
6 irregular 6 42 542 49 2.500000e+00 0.290 faster 0 1.301560e+06 1.301563e+06 3.268
6 irregular 6 43 543 72 2.500000e+00 0.376 faster 1 1.301564e+06 1.301567e+06 3.066
6 irregular 6 44 544 48 3 0.216 slower 1 1.301568e+06 1.301572e+06 3.736
6 irregular 6 45 545 71 2.500000e+00 0.220 faster 1 1.301573e+06 1.301576e+06 2.973
6 irregular 6 46 546 49 3 0.313 faster 0 1.301577e+06 1.301580e+06 3.549
6 irregular 6 47 547 72 1 0.371 faster 1 1.301582e+06 1.301583e+06 1.661
6 irregular 6 48 548 49 1 0.427 faster 0 1.301584e+06 1.301586e+06 1.605
6 irregular 6 49 549 48 1.500000e+00 0.203 slower 1 1.301587e+06 1.301589e+06 2.294
6 irregular 6 50 550 72 2.500000e+00 0.229 faster 1 1.301591e+06 1.301594e+06 3.141
6 irregular 6 51 551 49 3 0.539 faster 0 1.301595e+06 1.301599e+06 3.588
6 irregular 6 52 552 72 1.500000e+00 0.424 faster 1 1.301600e+06 1.301602e+06 2.046
6 irregular 6 53 553 48 2.500000e+00 0.348 slower 1 1.301603e+06 1.301606e+06 3.161
6 irregular 6 54 554 71 1.500000e+00 0.250 faster 1 1.301607e+06 1.301609e+06 1.935
6 irregular 6 55 555 49 1.500000e+00 0.119 faster 0 1.301610e+06 1.301612e+06 2.163
6 irregular 6 56 556 72 2.500000e+00 0.399 faster 1 1.301613e+06 1.301616e+06 3.179
6 irregular 6 57 557 71 2.500000e+00 0.168 faster 1 1.301617e+06 1.301620e+06 3.014
6 irregular 6 58 558 71 3 0.587 faster 1 1.301622e+06 1.301625e+06 3.600
6 irregular 6 59 559 70 1.500000e+00 0.572 faster 1 1.301627e+06 1.301629e+06 2.074
6 irregular 6 60 560 50 2.500000e+00 0.460 slower 1 1.301630e+06 1.301633e+06 3.138
6 irregular 6 61 561 69 2 0.595 faster 1 1.301634e+06 1.301637e+06 2.419
6 irregular 6 62 562 69 3 0.131 faster 1 1.301638e+06 1.301641e+06 3.611
6 irregular 6 63 563 68 3 0.320 faster 1 1.301642e+06 1.301646e+06 3.601
6 irregular 6 64 564 52 1.500000e+00 0.107 faster 0 1.301647e+06 1.301649e+06 2.141
6 irregular 6 65 565 51 2 0.344 faster 0 1.301650e+06 1.301653e+06 2.570
6 irregular 6 66 566 50 2.500000e+00 0.484 slower 1 1.301655e+06 1.301658e+06 3.026
6 irregular 6 67 567 51 1.500000e+00 0.573 slower 1 1.301660e+06 1.301662e+06 2.838
6 irregular 6 68 568 69 2 0.304 faster 1 1.301664e+06 1.301666e+06 2.495
6 irregular 6 69 569 68 1 0.215 faster 1 1.301667e+06 1.301669e+06 1.599
6 irregular 6 70 570 68 1 0.159 faster 1 1.301670e+06 1.301671e+06 1.596
6 irregular 6 71 571 67 1 0.554 faster 1 1.301672e+06 1.301674e+06 1.522
6 irregular 6 72 572 53 3 0.192 faster 0 1.301675e+06 1.301679e+06 3.678
6 irregular 6 73 573 68 2 0.256 faster 1 1.301679e+06 1.301682e+06 2.478
6 irregular 6 74 574 67 2.500000e+00 0.395 faster 1 1.301683e+06 1.301686e+06 3.155
6 irregular 6 75 575 67 1 0.481 faster 1 1.301687e+06 1.301689e+06 1.547
6 irregular 6 76 576 54 2.500000e+00 0.191 faster 0 1.301690e+06 1.301693e+06 3.207
6 irregular 6 77 577 67 1 0.222 faster 1 1.301694e+06 1.301695e+06 1.601
6 irregular 6 78 578 53 3 0.138 faster 0 1.301696e+06 1.301700e+06 3.674
6 irregular 6 79 579 52 1.500000e+00 0.107 faster 0 1.301701e+06 1.301703e+06 2.082
6 irregular 6 80 580 51 1 0.550 faster 0 1.301706e+06 1.301707e+06 1.631
6 irregular 6 81 581 50 1 0.367 faster 0 1.301710e+06 1.301711e+06 1.565
6 irregular 6 82 582 71 1.500000e+00 0.123 faster 1 1.301712e+06 1.301714e+06 2.013
6 irregular 6 83 583 50 3 0.369 slower 1 1.301718e+06 1.301722e+06 3.804
6 irregular 6 84 584 50 2.500000e+00 0.579 faster 0 1.301725e+06 1.301728e+06 3.142
6 irregular 6 85 585 71 2.500000e+00 0.203 faster 1 1.301730e+06 1.301733e+06 2.973
6 irregular 6 86 586 70 2 0.103 faster 1 1.301734e+06 1.301737e+06 2.704
6 irregular 6 87 587 70 2 0.323 faster 1 1.301737e+06 1.301740e+06 2.567
6 irregular 6 88 588 69 3 0.111 slower 0 1.301741e+06 1.301744e+06 3.652
6 irregular 6 89 589 70 3 0.256 faster 1 1.301745e+06 1.301749e+06 3.442
6 irregular 6 90 590 70 1 0.317 faster 1 1.301750e+06 1.301751e+06 1.564
6 irregular 6 91 591 51 1 0.334 faster 0 1.301752e+06 1.301754e+06 1.939
6 irregular 6 92 592 50 1.500000e+00 0.250 slower 1 1.301755e+06 1.301758e+06 2.292
6 irregular 6 93 593 70 1 0.499 faster 1 1.301759e+06 1.301760e+06 1.556
6 irregular 6 94 594 69 2 0.230 faster 1 1.301761e+06 1.301764e+06 2.441
6 irregular 6 95 595 69 2.500000e+00 0.341 slower 0 1.301765e+06 1.301768e+06 2.955
6 irregular 6 96 596 50 2.500000e+00 0.181 faster 0 1.301769e+06 1.301772e+06 3.038
6 irregular 6 97 597 49 3 0.568 slower 1 1.301773e+06 1.301777e+06 3.695
6 irregular 6 98 598 70 1.500000e+00 0.109 faster 1 1.301778e+06 1.301781e+06 2.322
6 irregular 6 99 599 50 2 0.153 faster 0 1.301782e+06 1.301784e+06 2.547
6 irregular 6 100 600 49 2 0.199 slower 1 1.301786e+06 1.301788e+06 2.661
6 regular 7 1 601 50 1 0.240 faster 0 1.301819e+06 1.301820e+06 1.679
6 regular 7 2 602 71 1 0.146 slower 0 1.301821e+06 1.301823e+06 1.642
6 regular 7 3 603 48 1 0.583 slower 1 1.301824e+06 1.301826e+06 1.677
6 regular 7 4 604 72 1 0.529 faster 1 1.301827e+06 1.301828e+06 1.577
6 regular 7 5 605 49 1 0.143 faster 0 1.301829e+06 1.301831e+06 1.790
6 regular 7 6 606 48 1 0.355 slower 1 1.301832e+06 1.301834e+06 1.891
6 regular 7 7 607 72 1 0.464 faster 1 1.301835e+06 1.301837e+06 1.728
6 regular 7 8 608 71 1 0.147 faster 1 1.301838e+06 1.301839e+06 1.872
6 regular 7 9 609 49 1 0.580 slower 1 1.301841e+06 1.301842e+06 1.559
6 regular 7 10 610 50 1 0.475 slower 1 1.301843e+06 1.301845e+06 1.801
6 regular 7 11 611 70 1 0.504 faster 1 1.301847e+06 1.301848e+06 1.551
6 regular 7 12 612 51 1 0.275 faster 0 1.301849e+06 1.301851e+06 1.645
6 regular 7 13 613 50 1 0.323 faster 0 1.301852e+06 1.301853e+06 1.545
6 regular 7 14 614 71 1 0.271 faster 1 1.301854e+06 1.301856e+06 1.610
6 regular 7 15 615 49 1 0.426 faster 0 1.301857e+06 1.301858e+06 1.440
6 regular 7 16 616 48 1 0.522 faster 0 1.301860e+06 1.301862e+06 1.479
6 regular 7 17 617 73 1 0.377 faster 1 1.301863e+06 1.301864e+06 1.433
6 regular 7 18 618 48 1 0.274 slower 1 1.301865e+06 1.301867e+06 2.236
6 regular 7 19 619 72 1 0.251 faster 1 1.301868e+06 1.301870e+06 1.464
6 regular 7 20 620 71 1 0.400 slower 0 1.301872e+06 1.301874e+06 1.686
6 regular 7 21 621 48 1 0.339 slower 1 1.301876e+06 1.301879e+06 2.669
6 regular 7 22 622 48 1 0.511 faster 0 1.301880e+06 1.301882e+06 1.680
6 regular 7 23 623 73 1 0.581 faster 1 1.301883e+06 1.301885e+06 1.526
6 regular 7 24 624 72 1 0.524 slower 0 1.301886e+06 1.301887e+06 1.502
6 regular 7 25 625 47 1 0.168 slower 1 1.301891e+06 1.301892e+06 1.554
6 regular 7 26 626 47 1 0.146 slower 1 1.301893e+06 1.301895e+06 1.694
6 regular 7 27 627 48 1 0.434 slower 1 1.301896e+06 1.301897e+06 1.481
6 regular 7 28 628 72 1 0.267 slower 0 1.301898e+06 1.301900e+06 1.485
6 regular 7 29 629 73 1 0.217 faster 1 1.301900e+06 1.301902e+06 1.584
6 regular 7 30 630 48 1 0.198 slower 1 1.301906e+06 1.301908e+06 1.658
6 regular 7 31 631 72 1 0.575 slower 0 1.301910e+06 1.301912e+06 1.582
6 regular 7 32 632 47 1 0.207 slower 1 1.301913e+06 1.301916e+06 2.650
6 regular 7 33 633 48 1 0.106 slower 1 1.301916e+06 1.301918e+06 1.605
6 regular 7 34 634 72 1 0.146 faster 1 1.301919e+06 1.301920e+06 1.791
6 regular 7 35 635 71 1 0.584 faster 1 1.301922e+06 1.301923e+06 1.513
6 regular 7 36 636 49 1 0.316 faster 0 1.301924e+06 1.301926e+06 1.474
6 regular 7 37 637 72 1 0.391 faster 1 1.301927e+06 1.301928e+06 1.613
6 regular 7 38 638 71 1 0.119 faster 1 1.301929e+06 1.301931e+06 1.500
6 regular 7 39 639 49 1 0.596 faster 0 1.301932e+06 1.301933e+06 1.558
6 regular 7 40 640 72 1 0.441 faster 1 1.301934e+06 1.301936e+06 1.566
6 regular 7 41 641 49 1 0.161 faster 0 1.301937e+06 1.301938e+06 1.644
6 regular 7 42 642 48 1 0.515 faster 0 1.301940e+06 1.301941e+06 1.663
6 regular 7 43 643 47 1 0.300 slower 1 1.301942e+06 1.301944e+06 1.749
6 regular 7 44 644 73 1 0.595 faster 1 1.301945e+06 1.301947e+06 1.686
6 regular 7 45 645 72 1 0.566 faster 1 1.301948e+06 1.301950e+06 1.677
6 regular 7 46 646 72 1 0.344 faster 1 1.301951e+06 1.301952e+06 1.366
6 regular 7 47 647 71 1 0.585 slower 0 1.301953e+06 1.301955e+06 1.482
6 regular 7 48 648 72 1 0.267 faster 1 1.301959e+06 1.301960e+06 1.681
6 regular 7 49 649 72 1 0.241 faster 1 1.301964e+06 1.301965e+06 1.660
6 regular 7 50 650 71 1 0.505 faster 1 1.301973e+06 1.301975e+06 1.840
6 regular 7 51 651 49 1 0.219 slower 1 1.301980e+06 1.301981e+06 1.571
6 regular 7 52 652 70 1 0.297 faster 1 1.301982e+06 1.301984e+06 1.467
6 regular 7 53 653 70 1 0.139 faster 1 1.301985e+06 1.301986e+06 1.419
6 regular 7 54 654 51 1 0.186 faster 0 1.301988e+06 1.301990e+06 1.739
6 regular 7 55 655 50 1 0.118 faster 0 1.301993e+06 1.301994e+06 1.597
6 regular 7 56 656 49 1 0.326 faster 0 1.302005e+06 1.302007e+06 1.979
6 regular 7 57 657 48 1 0.336 faster 0 1.302008e+06 1.302009e+06 1.516
6 regular 7 58 658 47 1 0.124 faster 0 1.302010e+06 1.302012e+06 1.489
6 regular 7 59 659 74 1 0.161 faster 1 1.302013e+06 1.302014e+06 1.450
6 regular 7 60 660 46 1 0.287 faster 0 1.302015e+06 1.302017e+06 1.799
6 regular 7 61 661 75 1 0.584 faster 1 1.302020e+06 1.302022e+06 1.495
6 regular 7 62 662 74 1 0.401 slower 0 1.302026e+06 1.302028e+06 1.927
6 regular 7 63 663 45 1 0.484 faster 0 1.302029e+06 1.302030e+06 1.416
6 regular 7 64 664 76 1 0.161 faster 1 1.302031e+06 1.302032e+06 1.461
6 regular 7 65 665 44 1 0.131 faster 0 1.302033e+06 1.302035e+06 1.515
6 regular 7 66 666 77 1 0.580 faster 1 1.302036e+06 1.302038e+06 1.484
6 regular 7 67 667 76 1 0.381 faster 1 1.302039e+06 1.302041e+06 1.595
6 regular 7 68 668 76 1 0.311 faster 1 1.302045e+06 1.302047e+06 1.582
6 regular 7 69 669 75 1 0.146 faster 1 1.302048e+06 1.302049e+06 1.391
6 regular 7 70 670 45 1 0.525 slower 1 1.302050e+06 1.302052e+06 1.532
6 regular 7 71 671 46 1 0.239 faster 0 1.302053e+06 1.302055e+06 1.608
6 regular 7 72 672 75 1 0.576 faster 1 1.302056e+06 1.302058e+06 1.457
6 regular 7 73 673 75 1 0.117 faster 1 1.302058e+06 1.302060e+06 2.041
6 regular 7 74 674 74 1 0.533 faster 1 1.302062e+06 1.302063e+06 1.549
6 regular 7 75 675 46 1 0.517 slower 1 1.302075e+06 1.302076e+06 1.497
6 regular 7 76 676 47 1 0.263 slower 1 1.302077e+06 1.302079e+06 1.673
6 regular 7 77 677 47 1 0.209 slower 1 1.302080e+06 1.302081e+06 1.621
6 regular 7 78 678 48 1 0.526 slower 1 1.302082e+06 1.302084e+06 1.489
6 regular 7 79 679 48 1 0.318 slower 1 1.302085e+06 1.302087e+06 2.172
6 regular 7 80 680 71 1 0.217 slower 0 1.302088e+06 1.302090e+06 1.699
6 regular 7 81 681 72 1 0.389 faster 1 1.302096e+06 1.302098e+06 1.435
6 regular 7 82 682 72 1 0.292 faster 1 1.302104e+06 1.302105e+06 1.396
6 regular 7 83 683 71 1 0.600 faster 1 1.302106e+06 1.302108e+06 1.548
6 regular 7 84 684 71 1 0.227 faster 1 1.302114e+06 1.302115e+06 1.541
6 regular 7 85 685 50 1 0.439 faster 0 1.302120e+06 1.302121e+06 1.487
6 regular 7 86 686 71 1 0.358 faster 1 1.302123e+06 1.302124e+06 1.477
6 regular 7 87 687 49 1 0.573 slower 1 1.302148e+06 1.302150e+06 1.840
6 regular 7 88 688 50 1 0.202 slower 1 1.302151e+06 1.302153e+06 2.062
6 regular 7 89 689 50 1 0.450 faster 0 1.302154e+06 1.302156e+06 1.739
6 regular 7 90 690 71 1 0.326 faster 1 1.302157e+06 1.302159e+06 1.612
6 regular 7 91 691 50 1 0.368 slower 1 1.302160e+06 1.302161e+06 1.658
6 regular 7 92 692 50 1 0.258 faster 0 1.302162e+06 1.302164e+06 1.454
6 regular 7 93 693 49 1 0.204 slower 1 1.302165e+06 1.302167e+06 1.707
6 regular 7 94 694 70 1 0.209 faster 1 1.302172e+06 1.302174e+06 1.636
6 regular 7 95 695 70 1 0.471 faster 1 1.302177e+06 1.302179e+06 1.734
6 regular 7 96 696 51 1 0.150 faster 0 1.302180e+06 1.302181e+06 1.512
6 regular 7 97 697 70 1 0.262 faster 1 1.302184e+06 1.302185e+06 1.548
6 regular 7 98 698 50 1 0.321 faster 0 1.302187e+06 1.302188e+06 1.504
6 regular 7 99 699 49 1 0.271 slower 1 1.302192e+06 1.302194e+06 1.644
6 regular 7 100 700 70 1 0.442 faster 1 1.302195e+06 1.302196e+06 1.544
6 irregular 8 1 701 70 1 0.413 faster 1 1.302236e+06 1.302237e+06 1.447
6 irregular 8 2 702 51 2.500000e+00 0.474 faster 0 1.302238e+06 1.302242e+06 3.095
6 irregular 8 3 703 50 2.500000e+00 0.553 faster 0 1.302243e+06 1.302247e+06 3.053
6 irregular 8 4 704 71 2 0.586 faster 1 1.302248e+06 1.302250e+06 2.488
6 irregular 8 5 705 71 1.500000e+00 0.373 faster 1 1.302251e+06 1.302253e+06 2.006
6 irregular 8 6 706 50 2 0.384 slower 1 1.302254e+06 1.302257e+06 2.732
6 irregular 8 7 707 50 2 0.139 faster 0 1.302259e+06 1.302261e+06 2.545
6 irregular 8 8 708 71 3 0.373 faster 1 1.302262e+06 1.302266e+06 3.532
6 irregular 8 9 709 70 2.500000e+00 0.568 faster 1 1.302267e+06 1.302270e+06 3.031
6 irregular 8 10 710 50 1 0.338 faster 0 1.302271e+06 1.302273e+06 1.540
6 irregular 8 11 711 49 2.500000e+00 0.245 faster 0 1.302274e+06 1.302277e+06 3.347
6 irregular 8 12 712 72 1 0.143 faster 1 1.302278e+06 1.302280e+06 1.468
6 irregular 8 13 713 71 2.500000e+00 0.477 faster 1 1.302281e+06 1.302284e+06 3.046
6 irregular 8 14 714 71 3 0.268 faster 1 1.302287e+06 1.302291e+06 3.678
6 irregular 8 15 715 50 1.500000e+00 0.436 faster 0 1.302293e+06 1.302295e+06 1.979
6 irregular 8 16 716 49 1.500000e+00 0.272 slower 1 1.302301e+06 1.302303e+06 2.020
6 irregular 8 17 717 71 3 0.172 faster 1 1.302315e+06 1.302319e+06 3.589
6 irregular 8 18 718 70 3 0.251 faster 1 1.302320e+06 1.302323e+06 3.535
6 irregular 8 19 719 50 1 0.108 faster 0 1.302330e+06 1.302332e+06 1.612
6 irregular 8 20 720 71 2.500000e+00 0.335 faster 1 1.302340e+06 1.302343e+06 3.139
6 irregular 8 21 721 70 3 0.296 faster 1 1.302364e+06 1.302368e+06 3.620
6 irregular 8 22 722 70 2 0.402 faster 1 1.302369e+06 1.302371e+06 2.560
6 irregular 8 23 723 51 1 0.363 faster 0 1.302372e+06 1.302374e+06 1.454
6 irregular 8 24 724 50 3 0.302 faster 0 1.302376e+06 1.302380e+06 3.550
6 irregular 8 25 725 49 1 0.119 faster 0 1.302389e+06 1.302391e+06 1.467
6 irregular 8 26 726 72 3 0.156 faster 1 1.302392e+06 1.302396e+06 3.541
6 irregular 8 27 727 48 3 0.292 faster 0 1.302397e+06 1.302401e+06 3.519
6 irregular 8 28 728 73 1.500000e+00 0.274 faster 1 1.302403e+06 1.302406e+06 2.052
6 irregular 8 29 729 72 2 0.496 faster 1 1.302407e+06 1.302409e+06 2.630
6 irregular 8 30 730 72 2 0.321 faster 1 1.302410e+06 1.302413e+06 2.527
6 irregular 8 31 731 49 2.500000e+00 0.246 slower 1 1.302415e+06 1.302418e+06 3.233
6 irregular 8 32 732 49 3 0.512 slower 1 1.302419e+06 1.302423e+06 3.708
6 irregular 8 33 733 50 1.500000e+00 0.448 faster 0 1.302428e+06 1.302430e+06 2.042
6 irregular 8 34 734 71 2 0.126 faster 1 1.302431e+06 1.302433e+06 2.508
6 irregular 8 35 735 71 3 0.533 faster 1 1.302435e+06 1.302438e+06 3.623
6 irregular 8 36 736 50 1.500000e+00 0.466 faster 0 1.302439e+06 1.302442e+06 2.188
6 irregular 8 37 737 71 2.500000e+00 0.480 faster 1 1.302445e+06 1.302448e+06 3.003
6 irregular 8 38 738 49 2 0.369 faster 0 1.302449e+06 1.302452e+06 2.649
6 irregular 8 39 739 48 3 0.426 slower 1 1.302463e+06 1.302466e+06 3.625
6 irregular 8 40 740 49 2 0.496 faster 0 1.302467e+06 1.302470e+06 2.608
6 irregular 8 41 741 72 1 0.562 faster 1 1.302487e+06 1.302489e+06 1.547
6 irregular 8 42 742 48 3 0.553 faster 0 1.302490e+06 1.302494e+06 3.663
6 irregular 8 43 743 47 1 0.514 faster 0 1.302495e+06 1.302497e+06 1.546
6 irregular 8 44 744 74 1 0.589 faster 1 1.302498e+06 1.302500e+06 1.547
6 irregular 8 45 745 73 2.500000e+00 0.447 faster 1 1.302501e+06 1.302504e+06 3.099
6 irregular 8 46 746 47 3 0.582 slower 1 1.302505e+06 1.302509e+06 3.870
6 irregular 8 47 747 48 2 0.459 faster 0 1.302510e+06 1.302513e+06 2.489
6 irregular 8 48 748 73 2.500000e+00 0.501 faster 1 1.302514e+06 1.302517e+06 3.045
6 irregular 8 49 749 73 1 0.416 faster 1 1.302518e+06 1.302520e+06 1.457
6 irregular 8 50 750 48 2 0.273 faster 0 1.302521e+06 1.302523e+06 2.596
6 irregular 8 51 751 73 1 0.346 faster 1 1.302525e+06 1.302527e+06 1.478
6 irregular 8 52 752 47 1.500000e+00 0.180 slower 1 1.302528e+06 1.302530e+06 1.898
6 irregular 8 53 753 48 3 0.329 faster 0 1.302531e+06 1.302534e+06 3.479
6 irregular 8 54 754 73 2 0.187 faster 1 1.302535e+06 1.302538e+06 2.412
6 irregular 8 55 755 47 1 0.287 faster 0 1.302539e+06 1.302541e+06 1.592
6 irregular 8 56 756 46 1.500000e+00 0.293 slower 1 1.302542e+06 1.302544e+06 2.243
6 irregular 8 57 757 47 2.500000e+00 0.406 faster 0 1.302545e+06 1.302548e+06 2.965
6 irregular 8 58 758 74 2.500000e+00 0.102 faster 1 1.302549e+06 1.302552e+06 3.018
6 irregular 8 59 759 74 2.500000e+00 0.382 faster 1 1.302557e+06 1.302560e+06 3.043
6 irregular 8 60 760 47 1 0.276 faster 0 1.302563e+06 1.302565e+06 1.644
6 irregular 8 61 761 74 2.500000e+00 0.446 faster 1 1.302567e+06 1.302570e+06 3.056
6 irregular 8 62 762 74 2 0.235 faster 1 1.302572e+06 1.302575e+06 2.531
6 irregular 8 63 763 73 3 0.238 faster 1 1.302576e+06 1.302580e+06 3.620
6 irregular 8 64 764 73 1 0.383 faster 1 1.302586e+06 1.302588e+06 1.656
6 irregular 8 65 765 72 3 0.521 faster 1 1.302589e+06 1.302593e+06 3.472
6 irregular 8 66 766 72 1 0.487 faster 1 1.302600e+06 1.302602e+06 1.662
6 irregular 8 67 767 49 3 0.364 slower 1 1.302606e+06 1.302609e+06 3.743
6 irregular 8 68 768 71 1.500000e+00 0.498 faster 1 1.302611e+06 1.302612e+06 1.952
6 irregular 8 69 769 50 2.500000e+00 0.521 faster 0 1.302614e+06 1.302617e+06 3.214
6 irregular 8 70 770 49 1.500000e+00 0.598 faster 0 1.302619e+06 1.302621e+06 2.033
6 irregular 8 71 771 72 1.500000e+00 0.368 faster 1 1.302622e+06 1.302624e+06 2.025
6 irregular 8 72 772 48 2 0.418 slower 1 1.302625e+06 1.302628e+06 2.547
6 irregular 8 73 773 49 2 0.541 faster 0 1.302629e+06 1.302631e+06 2.538
6 irregular 8 74 774 72 2.500000e+00 0.118 faster 1 1.302632e+06 1.302635e+06 2.976
6 irregular 8 75 775 48 1 0.438 slower 1 1.302636e+06 1.302638e+06 1.607
6 irregular 8 76 776 71 3 0.129 faster 1 1.302639e+06 1.302642e+06 3.412
6 irregular 8 77 777 49 2.500000e+00 0.143 faster 0 1.302643e+06 1.302646e+06 3.084
6 irregular 8 78 778 48 2 0.177 slower 1 1.302647e+06 1.302650e+06 2.648
6 irregular 8 79 779 49 1.500000e+00 0.495 faster 0 1.302652e+06 1.302654e+06 2.100
6 irregular 8 80 780 48 1.500000e+00 0.575 faster 0 1.302655e+06 1.302657e+06 1.993
6 irregular 8 81 781 73 2 0.349 faster 1 1.302658e+06 1.302661e+06 2.510
6 irregular 8 82 782 47 1 0.230 faster 0 1.302662e+06 1.302663e+06 1.596
6 irregular 8 83 783 74 2 0.596 faster 1 1.302664e+06 1.302667e+06 2.551
6 irregular 8 84 784 73 1.500000e+00 0.102 faster 1 1.302668e+06 1.302670e+06 2.063
6 irregular 8 85 785 73 1.500000e+00 0.340 faster 1 1.302671e+06 1.302673e+06 2.220
6 irregular 8 86 786 48 1 0.436 slower 1 1.302676e+06 1.302678e+06 1.470
6 irregular 8 87 787 72 1.500000e+00 0.296 faster 1 1.302679e+06 1.302681e+06 2.180
6 irregular 8 88 788 49 2.500000e+00 0.210 faster 0 1.302682e+06 1.302685e+06 3.193
6 irregular 8 89 789 48 1.500000e+00 0.418 faster 0 1.302690e+06 1.302692e+06 2.057
6 irregular 8 90 790 73 1.500000e+00 0.430 faster 1 1.302693e+06 1.302695e+06 2.006
6 irregular 8 91 791 47 2.500000e+00 0.408 slower 1 1.302703e+06 1.302707e+06 3.321
6 irregular 8 92 792 48 3 0.132 faster 0 1.302708e+06 1.302712e+06 3.810
6 irregular 8 93 793 47 3 0.496 faster 0 1.302713e+06 1.302717e+06 3.642
6 irregular 8 94 794 74 2 0.389 faster 1 1.302720e+06 1.302723e+06 2.806
6 irregular 8 95 795 74 1 0.168 faster 1 1.302731e+06 1.302732e+06 1.633
6 irregular 8 96 796 73 1.500000e+00 0.597 faster 1 1.302734e+06 1.302736e+06 2.043
6 irregular 8 97 797 73 1.500000e+00 0.190 faster 1 1.302737e+06 1.302739e+06 2.006
6 irregular 8 98 798 72 1 0.524 faster 1 1.302740e+06 1.302742e+06 1.593
6 irregular 8 99 799 48 2.500000e+00 0.485 slower 1 1.302743e+06 1.302746e+06 2.931
6 irregular 8 100 800 49 2 0.248 slower 1 1.302748e+06 1.302751e+06 2.791
6 regular 9 1 801 49 2 0.220 slower 1 1.302804e+06 1.302806e+06 2.666
6 regular 9 2 802 70 2 0.113 slower 0 1.302807e+06 1.302810e+06 2.746
6 regular 9 3 803 71 2 0.123 faster 1 1.302811e+06 1.302814e+06 2.754
6 regular 9 4 804 49 2 0.501 slower 1 1.302815e+06 1.302818e+06 2.589
6 regular 9 5 805 70 2 0.217 faster 1 1.302819e+06 1.302821e+06 2.596
6 regular 9 6 806 50 2 0.238 faster 0 1.302822e+06 1.302825e+06 2.645
6 regular 9 7 807 71 2 0.378 faster 1 1.302826e+06 1.302828e+06 2.543
6 regular 9 8 808 50 2 0.130 slower 1 1.302829e+06 1.302832e+06 2.615
6 regular 9 9 809 70 2 0.196 faster 1 1.302833e+06 1.302835e+06 2.522
6 regular 9 10 810 69 2 0.519 faster 1 1.302836e+06 1.302839e+06 2.566
6 regular 9 11 811 69 2 0.346 faster 1 1.302840e+06 1.302842e+06 2.564
6 regular 9 12 812 52 2 0.579 slower 1 1.302844e+06 1.302846e+06 2.589
6 regular 9 13 813 68 2 0.111 faster 1 1.302847e+06 1.302850e+06 2.571
6 regular 9 14 814 53 2 0.584 faster 0 1.302851e+06 1.302854e+06 2.566
6 regular 9 15 815 68 2 0.379 slower 0 1.302855e+06 1.302857e+06 2.598
6 regular 9 16 816 51 2 0.123 faster 0 1.302858e+06 1.302861e+06 2.567
6 regular 9 17 817 70 2 0.397 slower 0 1.302862e+06 1.302865e+06 3.196
6 regular 9 18 818 71 2 0.527 faster 1 1.302866e+06 1.302869e+06 2.563
6 regular 9 19 819 49 2 0.179 slower 1 1.302873e+06 1.302876e+06 2.634
6 regular 9 20 820 50 2 0.335 slower 1 1.302877e+06 1.302880e+06 2.534
6 regular 9 21 821 50 2 0.274 slower 1 1.302881e+06 1.302883e+06 2.473
6 regular 9 22 822 69 2 0.231 slower 0 1.302884e+06 1.302887e+06 2.467
6 regular 9 23 823 70 2 0.420 faster 1 1.302888e+06 1.302890e+06 2.506
6 regular 9 24 824 50 2 0.341 slower 1 1.302891e+06 1.302894e+06 2.498
6 regular 9 25 825 51 2 0.507 slower 1 1.302895e+06 1.302897e+06 2.467
6 regular 9 26 826 51 2 0.148 slower 1 1.302898e+06 1.302901e+06 2.523
6 regular 9 27 827 52 2 0.258 slower 1 1.302904e+06 1.302906e+06 2.428
6 regular 9 28 828 52 2 0.107 slower 1 1.302908e+06 1.302910e+06 2.548
6 regular 9 29 829 53 2 0.276 slower 1 1.302911e+06 1.302914e+06 2.495
6 regular 9 30 830 67 2 0.136 slower 0 1.302915e+06 1.302917e+06 2.420
6 regular 9 31 831 52 2 0.450 slower 1 1.302920e+06 1.302922e+06 2.499
6 regular 9 32 832 67 2 0.290 slower 0 1.302924e+06 1.302926e+06 2.540
6 regular 9 33 833 52 2 0.111 slower 1 1.302932e+06 1.302935e+06 2.565
6 regular 9 34 834 68 2 0.532 slower 0 1.302940e+06 1.302942e+06 2.496
6 regular 9 35 835 51 2 0.303 slower 1 1.302944e+06 1.302946e+06 2.447
6 regular 9 36 836 68 2 0.393 slower 0 1.302948e+06 1.302950e+06 2.576
6 regular 9 37 837 51 2 0.117 slower 1 1.302952e+06 1.302954e+06 2.652
6 regular 9 38 838 51 2 0.167 slower 1 1.302955e+06 1.302958e+06 2.541
6 regular 9 39 839 52 2 0.435 slower 1 1.302959e+06 1.302961e+06 2.524
6 regular 9 40 840 52 2 0.429 slower 1 1.302963e+06 1.302966e+06 2.497
6 regular 9 41 841 53 2 0.261 slower 1 1.302967e+06 1.302969e+06 2.458
6 regular 9 42 842 53 2 0.278 slower 1 1.302971e+06 1.302973e+06 2.460
6 regular 9 43 843 54 2 0.185 slower 1 1.302974e+06 1.302976e+06 2.364
6 regular 9 44 844 54 2 0.270 slower 1 1.302977e+06 1.302980e+06 2.410
6 regular 9 45 845 65 2 0.309 slower 0 1.302981e+06 1.302984e+06 2.585
6 regular 9 46 846 66 2 0.470 faster 1 1.302987e+06 1.302989e+06 2.594
6 regular 9 47 847 54 2 0.129 slower 1 1.302993e+06 1.302995e+06 2.545
6 regular 9 48 848 65 2 0.111 slower 0 1.302999e+06 1.303002e+06 2.605
6 regular 9 49 849 66 2 0.379 faster 1 1.303005e+06 1.303007e+06 2.609
6 regular 9 50 850 66 2 0.547 faster 1 1.303009e+06 1.303011e+06 2.775
6 regular 9 51 851 55 2 0.451 slower 1 1.303012e+06 1.303015e+06 2.747
6 regular 9 52 852 55 2 0.175 faster 0 1.303016e+06 1.303019e+06 2.405
6 regular 9 53 853 66 2 0.497 faster 1 1.303021e+06 1.303024e+06 2.574
6 regular 9 54 854 65 2 0.141 slower 0 1.303029e+06 1.303031e+06 2.738
6 regular 9 55 855 54 2 0.429 slower 1 1.303033e+06 1.303036e+06 2.592
6 regular 9 56 856 54 2 0.147 slower 1 1.303037e+06 1.303040e+06 2.564
6 regular 9 57 857 55 2 0.364 slower 1 1.303041e+06 1.303043e+06 2.477
6 regular 9 58 858 65 2 0.241 slower 0 1.303044e+06 1.303046e+06 2.436
6 regular 9 59 859 66 2 0.190 slower 0 1.303047e+06 1.303050e+06 2.533
6 regular 9 60 860 67 2 0.575 slower 0 1.303053e+06 1.303055e+06 2.547
6 regular 9 61 861 68 2 0.113 slower 0 1.303056e+06 1.303058e+06 2.490
6 regular 9 62 862 69 2 0.204 slower 0 1.303059e+06 1.303062e+06 2.379
6 regular 9 63 863 50 2 0.286 slower 1 1.303066e+06 1.303069e+06 2.450
6 regular 9 64 864 69 2 0.210 slower 0 1.303078e+06 1.303080e+06 2.603
6 regular 9 65 865 70 2 0.495 slower 0 1.303082e+06 1.303085e+06 2.645
6 regular 9 66 866 71 2 0.228 slower 0 1.303088e+06 1.303090e+06 2.548
6 regular 9 67 867 72 2 0.512 faster 1 1.303093e+06 1.303096e+06 2.631
6 regular 9 68 868 72 2 0.260 slower 0 1.303097e+06 1.303099e+06 2.483
6 regular 9 69 869 73 2 0.393 faster 1 1.303100e+06 1.303103e+06 2.525
6 regular 9 70 870 48 2 0.547 slower 1 1.303104e+06 1.303107e+06 2.574
6 regular 9 71 871 72 2 0.504 faster 1 1.303110e+06 1.303113e+06 2.486
6 regular 9 72 872 49 2 0.389 slower 1 1.303114e+06 1.303117e+06 2.666
6 regular 9 73 873 71 2 0.500 faster 1 1.303118e+06 1.303121e+06 2.758
6 regular 9 74 874 50 2 0.463 slower 1 1.303122e+06 1.303125e+06 2.740
6 regular 9 75 875 70 2 0.581 faster 1 1.303126e+06 1.303128e+06 2.534
6 regular 9 76 876 69 2 0.593 slower 0 1.303130e+06 1.303133e+06 2.808
6 regular 9 77 877 70 2 0.318 slower 0 1.303135e+06 1.303138e+06 2.521
6 regular 9 78 878 71 2 0.233 faster 1 1.303139e+06 1.303141e+06 2.558
6 regular 9 79 879 49 2 0.324 slower 1 1.303142e+06 1.303145e+06 2.525
6 regular 9 80 880 50 2 0.545 slower 1 1.303146e+06 1.303149e+06 2.618
6 regular 9 81 881 70 2 0.228 slower 0 1.303150e+06 1.303153e+06 2.478
6 regular 9 82 882 49 2 0.211 slower 1 1.303154e+06 1.303156e+06 2.666
6 regular 9 83 883 70 2 0.279 slower 0 1.303158e+06 1.303160e+06 2.479
6 regular 9 84 884 49 2 0.142 slower 1 1.303161e+06 1.303163e+06 2.461
6 regular 9 85 885 49 2 0.528 slower 1 1.303165e+06 1.303167e+06 2.421
6 regular 9 86 886 50 2 0.413 slower 1 1.303169e+06 1.303171e+06 2.390
6 regular 9 87 887 70 2 0.517 faster 1 1.303174e+06 1.303176e+06 2.456
6 regular 9 88 888 69 2 0.404 slower 0 1.303177e+06 1.303180e+06 2.454
6 regular 9 89 889 50 2 0.325 faster 0 1.303180e+06 1.303183e+06 2.662
6 regular 9 90 890 71 2 0.346 slower 0 1.303184e+06 1.303187e+06 2.405
6 regular 9 91 891 72 2 0.397 faster 1 1.303188e+06 1.303190e+06 2.555
6 regular 9 92 892 72 2 0.344 faster 1 1.303191e+06 1.303194e+06 2.600
6 regular 9 93 893 71 2 0.138 faster 1 1.303195e+06 1.303197e+06 2.552
6 regular 9 94 894 49 2 0.449 slower 1 1.303198e+06 1.303201e+06 2.606
6 regular 9 95 895 70 2 0.111 faster 1 1.303202e+06 1.303205e+06 2.481
6 regular 9 96 896 50 2 0.288 slower 1 1.303206e+06 1.303208e+06 2.563
6 regular 9 97 897 51 2 0.325 faster 0 1.303209e+06 1.303212e+06 2.482
6 regular 9 98 898 50 2 0.584 slower 1 1.303213e+06 1.303216e+06 2.647
6 regular 9 99 899 50 2 0.354 slower 1 1.303217e+06 1.303219e+06 2.580
6 regular 9 100 900 51 2 0.192 slower 1 1.303220e+06 1.303223e+06 2.679
6 irregular 10 1 901 69 3 0.481 faster 1 1.303262e+06 1.303265e+06 3.613
6 irregular 10 2 902 68 2.500000e+00 0.425 faster 1 1.303267e+06 1.303270e+06 3.146
6 irregular 10 3 903 68 1 0.204 faster 1 1.303271e+06 1.303272e+06 1.527
6 irregular 10 4 904 53 1 0.123 faster 0 1.303273e+06 1.303274e+06 1.529
6 irregular 10 5 905 52 3 0.218 slower 1 1.303275e+06 1.303279e+06 3.408
6 irregular 10 6 906 68 1.500000e+00 0.545 faster 1 1.303280e+06 1.303282e+06 1.931
6 irregular 10 7 907 67 3 0.389 faster 1 1.303283e+06 1.303287e+06 3.678
6 irregular 10 8 908 67 3 0.312 faster 1 1.303288e+06 1.303291e+06 3.572
6 irregular 10 9 909 54 2 0.493 slower 1 1.303293e+06 1.303296e+06 2.820
6 irregular 10 10 910 54 3 0.266 faster 0 1.303297e+06 1.303300e+06 3.557
6 irregular 10 11 911 53 2 0.136 faster 0 1.303301e+06 1.303304e+06 2.567
6 irregular 10 12 912 52 3 0.582 slower 1 1.303306e+06 1.303309e+06 3.583
6 irregular 10 13 913 53 1 0.236 faster 0 1.303311e+06 1.303312e+06 1.684
6 irregular 10 14 914 52 2.500000e+00 0.364 faster 0 1.303313e+06 1.303317e+06 3.066
6 irregular 10 15 915 51 2.500000e+00 0.142 slower 1 1.303318e+06 1.303321e+06 3.018
6 irregular 10 16 916 51 1 0.288 faster 0 1.303322e+06 1.303324e+06 1.531
6 irregular 10 17 917 70 2 0.239 faster 1 1.303326e+06 1.303328e+06 2.522
6 irregular 10 18 918 51 2.500000e+00 0.244 slower 1 1.303331e+06 1.303334e+06 3.007
6 irregular 10 19 919 51 2 0.251 faster 0 1.303335e+06 1.303338e+06 2.493
6 irregular 10 20 920 70 2 0.105 faster 1 1.303339e+06 1.303341e+06 2.490
6 irregular 10 21 921 69 2.500000e+00 0.396 faster 1 1.303342e+06 1.303346e+06 3.133
6 irregular 10 22 922 69 1 0.486 faster 1 1.303347e+06 1.303348e+06 1.570
6 irregular 10 23 923 52 1.500000e+00 0.290 faster 0 1.303349e+06 1.303352e+06 2.490
6 irregular 10 24 924 51 3 0.201 faster 0 1.303353e+06 1.303356e+06 3.630
6 irregular 10 25 925 70 2.500000e+00 0.327 faster 1 1.303357e+06 1.303360e+06 3.058
6 irregular 10 26 926 70 1 0.314 faster 1 1.303361e+06 1.303363e+06 1.544
6 irregular 10 27 927 51 1 0.367 faster 0 1.303366e+06 1.303367e+06 1.516
6 irregular 10 28 928 50 1.500000e+00 0.314 faster 0 1.303368e+06 1.303370e+06 2.080
6 irregular 10 29 929 49 2 0.113 faster 0 1.303371e+06 1.303374e+06 2.458
6 irregular 10 30 930 48 1 0.155 faster 0 1.303375e+06 1.303376e+06 1.729
6 irregular 10 31 931 47 2.500000e+00 0.226 slower 1 1.303378e+06 1.303381e+06 3.008
6 irregular 10 32 932 47 1 0.113 slower 1 1.303381e+06 1.303383e+06 1.780
6 irregular 10 33 933 72 1 0.150 slower 0 1.303384e+06 1.303385e+06 1.462
6 irregular 10 34 934 73 1.500000e+00 0.257 faster 1 1.303387e+06 1.303389e+06 1.918
6 irregular 10 35 935 73 3 0.580 faster 1 1.303391e+06 1.303395e+06 3.659
6 irregular 10 36 936 72 1.500000e+00 0.368 faster 1 1.303396e+06 1.303398e+06 1.993
6 irregular 10 37 937 72 3 0.401 faster 1 1.303399e+06 1.303402e+06 3.568
6 irregular 10 38 938 49 1.500000e+00 0.425 faster 0 1.303404e+06 1.303406e+06 2.114
6 irregular 10 39 939 72 2 0.340 faster 1 1.303407e+06 1.303410e+06 2.683
6 irregular 10 40 940 72 1 0.532 faster 1 1.303411e+06 1.303412e+06 1.566
6 irregular 10 41 941 49 1.500000e+00 0.420 faster 0 1.303414e+06 1.303416e+06 2.021
6 irregular 10 42 942 72 2.500000e+00 0.599 faster 1 1.303417e+06 1.303420e+06 3.077
6 irregular 10 43 943 48 1.500000e+00 0.499 faster 0 1.303421e+06 1.303423e+06 2.083
6 irregular 10 44 944 47 1 0.595 faster 0 1.303425e+06 1.303426e+06 1.586
6 irregular 10 45 945 74 3 0.234 faster 1 1.303427e+06 1.303431e+06 3.561
6 irregular 10 46 946 73 2 0.166 faster 1 1.303432e+06 1.303434e+06 2.612
6 irregular 10 47 947 47 1.500000e+00 0.460 faster 0 1.303435e+06 1.303438e+06 2.106
6 irregular 10 48 948 74 3 0.253 faster 1 1.303438e+06 1.303442e+06 3.525
6 irregular 10 49 949 73 2 0.387 faster 1 1.303443e+06 1.303446e+06 2.529
6 irregular 10 50 950 47 2.500000e+00 0.182 slower 1 1.303446e+06 1.303450e+06 3.370
6 irregular 10 51 951 48 3 0.226 slower 1 1.303451e+06 1.303454e+06 3.711
6 irregular 10 52 952 72 2.500000e+00 0.266 faster 1 1.303455e+06 1.303458e+06 2.969
6 irregular 10 53 953 49 2 0.338 faster 0 1.303459e+06 1.303462e+06 2.502
6 irregular 10 54 954 48 3 0.430 slower 1 1.303463e+06 1.303467e+06 3.562
6 irregular 10 55 955 48 1.500000e+00 0.308 faster 0 1.303469e+06 1.303471e+06 2.027
6 irregular 10 56 956 73 3 0.271 faster 1 1.303472e+06 1.303476e+06 3.574
6 irregular 10 57 957 72 2 0.226 faster 1 1.303477e+06 1.303479e+06 2.508
6 irregular 10 58 958 72 2.500000e+00 0.102 faster 1 1.303480e+06 1.303483e+06 2.956
6 irregular 10 59 959 71 2.500000e+00 0.275 faster 1 1.303485e+06 1.303489e+06 3.105
6 irregular 10 60 960 71 1.500000e+00 0.389 faster 1 1.303490e+06 1.303492e+06 2.084
6 irregular 10 61 961 70 3 0.434 slower 0 1.303493e+06 1.303497e+06 3.847
6 irregular 10 62 962 49 1 0.588 faster 0 1.303499e+06 1.303501e+06 1.630
6 irregular 10 63 963 48 2.500000e+00 0.265 faster 0 1.303502e+06 1.303505e+06 3.041
6 irregular 10 64 964 73 2 0.571 faster 1 1.303507e+06 1.303509e+06 2.509
6 irregular 10 65 965 47 1.500000e+00 0.141 slower 1 1.303511e+06 1.303513e+06 2.230
6 irregular 10 66 966 48 2.500000e+00 0.396 slower 1 1.303514e+06 1.303517e+06 3.345
6 irregular 10 67 967 72 1.500000e+00 0.214 faster 1 1.303533e+06 1.303535e+06 2.070
6 irregular 10 68 968 71 2.500000e+00 0.585 faster 1 1.303538e+06 1.303541e+06 3.108
6 irregular 10 69 969 71 3 0.396 faster 1 1.303543e+06 1.303546e+06 3.563
6 irregular 10 70 970 70 1.500000e+00 0.358 faster 1 1.303547e+06 1.303549e+06 2.126
6 irregular 10 71 971 70 1.500000e+00 0.591 faster 1 1.303551e+06 1.303553e+06 2.067
6 irregular 10 72 972 51 2 0.248 faster 0 1.303554e+06 1.303556e+06 2.566
6 irregular 10 73 973 70 1 0.216 faster 1 1.303557e+06 1.303559e+06 1.573
6 irregular 10 74 974 50 1.500000e+00 0.247 faster 0 1.303560e+06 1.303562e+06 2.008
6 irregular 10 75 975 71 2.500000e+00 0.156 faster 1 1.303563e+06 1.303566e+06 3.056
6 irregular 10 76 976 50 3 0.366 slower 1 1.303567e+06 1.303571e+06 3.643
6 irregular 10 77 977 50 2.500000e+00 0.165 faster 0 1.303572e+06 1.303575e+06 3.241
6 irregular 10 78 978 49 1 0.596 slower 1 1.303576e+06 1.303578e+06 1.705
6 irregular 10 79 979 70 1 0.428 faster 1 1.303579e+06 1.303580e+06 1.589
6 irregular 10 80 980 50 3 0.538 slower 1 1.303582e+06 1.303585e+06 3.694
6 irregular 10 81 981 69 2 0.195 faster 1 1.303586e+06 1.303589e+06 2.579
6 irregular 10 82 982 51 1 0.401 faster 0 1.303590e+06 1.303591e+06 1.629
6 irregular 10 83 983 70 1 0.106 faster 1 1.303593e+06 1.303595e+06 1.661
6 irregular 10 84 984 69 1 0.518 faster 1 1.303596e+06 1.303598e+06 1.560
6 irregular 10 85 985 51 2.500000e+00 0.498 slower 1 1.303600e+06 1.303603e+06 3.137
6 irregular 10 86 986 52 2 0.123 faster 0 1.303604e+06 1.303606e+06 2.707
6 irregular 10 87 987 51 2 0.414 faster 0 1.303608e+06 1.303610e+06 2.426
6 irregular 10 88 988 50 1.500000e+00 0.400 slower 1 1.303611e+06 1.303613e+06 2.152
6 irregular 10 89 989 50 2 0.402 slower 1 1.303615e+06 1.303617e+06 2.584
6 irregular 10 90 990 69 2 0.257 slower 0 1.303618e+06 1.303621e+06 2.564
6 irregular 10 91 991 50 2 0.133 slower 1 1.303621e+06 1.303624e+06 2.570
6 irregular 10 92 992 50 3 0.586 slower 1 1.303626e+06 1.303629e+06 3.679
6 irregular 10 93 993 69 2 0.279 faster 1 1.303631e+06 1.303633e+06 2.620
6 irregular 10 94 994 51 2.500000e+00 0.504 slower 1 1.303635e+06 1.303638e+06 3.023
6 irregular 10 95 995 68 1.500000e+00 0.568 faster 1 1.303639e+06 1.303641e+06 2.022
6 irregular 10 96 996 68 2.500000e+00 0.284 faster 1 1.303642e+06 1.303645e+06 2.935
6 irregular 10 97 997 67 1.500000e+00 0.208 faster 1 1.303646e+06 1.303648e+06 2.136
6 irregular 10 98 998 53 3 0.488 faster 0 1.303649e+06 1.303653e+06 3.635
6 irregular 10 99 999 68 1 0.260 faster 1 1.303654e+06 1.303655e+06 1.511
6 irregular 10 100 1000 67 1.500000e+00 0.598 faster 1 1.303657e+06 1.303659e+06 2.322
