subNo condition blockNo trialNo trialID currentFrequency cueTargetInterval randomPreCueInterval response responseAccuracy startTime responseTime RT
20 regular 1 1 1 71 3 0.417 faster 1 3.387067e+06 3.387071e+06 3.711
20 regular 1 2 2 71 3 0.451 faster 1 3.387072e+06 3.387076e+06 3.714
20 regular 1 3 3 69 3 0.560 slower 0 3.387077e+06 3.387081e+06 3.664
20 regular 1 4 4 49 3 0.376 slower 1 3.387082e+06 3.387086e+06 3.947
20 regular 1 5 5 49 3 0.546 faster 0 3.387087e+06 3.387091e+06 3.790
20 regular 1 6 6 73 3 0.577 faster 1 3.387092e+06 3.387096e+06 3.792
20 regular 1 7 7 71 3 0.158 faster 1 3.387103e+06 3.387107e+06 4.559
20 regular 1 8 8 49 3 0.466 slower 1 3.387108e+06 3.387112e+06 3.917
20 regular 1 9 9 51 3 0.503 slower 1 3.387114e+06 3.387118e+06 4.106
20 regular 1 10 10 51 3 0.207 faster 0 3.387119e+06 3.387122e+06 3.901
20 regular 1 11 11 71 3 0.144 faster 1 3.387124e+06 3.387128e+06 4.286
20 regular 1 12 12 51 3 0.320 slower 1 3.387129e+06 3.387133e+06 3.745
20 regular 1 13 13 51 3 0.203 slower 1 3.387133e+06 3.387137e+06 4.011
20 regular 1 14 14 68 3 0.209 faster 1 3.387139e+06 3.387143e+06 3.829
20 regular 1 15 15 68 3 0.271 slower 0 3.387144e+06 3.387148e+06 3.738
20 regular 1 16 16 51 3 0.266 slower 1 3.387158e+06 3.387162e+06 4.007
20 regular 1 17 17 52 3 0.412 faster 0 3.387163e+06 3.387167e+06 3.743
20 regular 1 18 18 51 3 0.496 faster 0 3.387168e+06 3.387172e+06 3.629
20 regular 1 19 19 70 3 0.476 slower 0 3.387173e+06 3.387176e+06 3.540
20 regular 1 20 20 71 3 0.487 faster 1 3.387181e+06 3.387185e+06 3.923
20 regular 1 21 21 71 3 0.214 faster 1 3.387185e+06 3.387189e+06 3.761
20 regular 1 22 22 70 3 0.292 faster 1 3.387219e+06 3.387223e+06 3.749
20 regular 1 23 23 50 3 0.363 faster 0 3.387224e+06 3.387228e+06 3.796
20 regular 1 24 24 71 3 0.577 faster 1 3.387229e+06 3.387232e+06 3.755
20 regular 1 25 25 70 3 0.472 slower 0 3.387234e+06 3.387238e+06 4.368
20 regular 1 26 26 49 3 0.579 faster 0 3.387239e+06 3.387243e+06 3.870
20 regular 1 27 27 48 3 0.569 faster 0 3.387244e+06 3.387248e+06 3.615
20 regular 1 28 28 47 3 0.401 faster 0 3.387253e+06 3.387257e+06 3.673
20 regular 1 29 29 74 3 0.440 faster 1 3.387268e+06 3.387272e+06 3.591
20 regular 1 30 30 46 3 0.569 faster 0 3.387273e+06 3.387276e+06 3.548
20 regular 1 31 31 45 3 0.248 faster 0 3.387299e+06 3.387303e+06 3.723
20 regular 1 32 32 44 3 0.247 faster 0 3.387306e+06 3.387309e+06 3.609
20 regular 1 33 33 77 3 0.166 faster 1 3.387311e+06 3.387314e+06 3.525
20 regular 1 34 34 76 3 0.118 faster 1 3.387316e+06 3.387320e+06 3.655
20 regular 1 35 35 44 3 0.271 faster 0 3.387337e+06 3.387341e+06 3.632
20 regular 1 36 36 43 3 0.570 slower 1 3.387342e+06 3.387346e+06 3.745
20 regular 1 37 37 76 3 0.445 faster 1 3.387348e+06 3.387351e+06 3.590
20 regular 1 38 38 44 3 0.258 faster 0 3.387387e+06 3.387391e+06 3.666
20 regular 1 39 39 43 3 0.336 faster 0 3.387392e+06 3.387395e+06 3.540
20 regular 1 40 40 78 3 0.448 faster 1 3.387396e+06 3.387400e+06 3.505
20 regular 1 41 41 43 3 0.302 slower 1 3.387401e+06 3.387404e+06 3.599
20 regular 1 42 42 43 3 0.211 faster 0 3.387405e+06 3.387409e+06 3.633
20 regular 1 43 43 42 3 0.521 slower 1 3.387411e+06 3.387415e+06 3.691
20 regular 1 44 44 43 3 0.559 faster 0 3.387435e+06 3.387439e+06 3.687
20 regular 1 45 45 42 3 0.488 faster 0 3.387440e+06 3.387446e+06 5.212
20 regular 1 46 46 79 3 0.207 faster 1 3.387446e+06 3.387450e+06 3.780
20 regular 1 47 47 79 3 0.381 faster 1 3.387451e+06 3.387455e+06 3.712
20 regular 1 48 48 42 3 0.498 faster 0 3.387456e+06 3.387460e+06 4.094
20 regular 1 49 49 79 3 0.272 faster 1 3.387461e+06 3.387465e+06 3.899
20 regular 1 50 50 41 3 0.253 slower 1 3.387476e+06 3.387479e+06 3.732
20 regular 1 51 51 78 3 0.228 faster 1 3.387488e+06 3.387491e+06 3.655
20 regular 1 52 52 78 3 0.210 faster 1 3.387496e+06 3.387500e+06 3.681
20 regular 1 53 53 43 3 0.331 none 2 3.387501e+06 3.387507e+06 5.999
20 regular 1 54 54 43 3 0.268 faster 0 3.387507e+06 3.387512e+06 4.015
20 regular 1 55 55 78 3 0.573 faster 1 3.387513e+06 3.387517e+06 4.076
20 regular 1 56 56 42 3 0.207 slower 1 3.387518e+06 3.387521e+06 3.652
20 regular 1 57 57 43 3 0.460 faster 0 3.387523e+06 3.387527e+06 3.867
20 regular 1 58 58 42 3 0.476 slower 1 3.387528e+06 3.387531e+06 3.630
20 regular 1 59 59 78 3 0.378 faster 1 3.387533e+06 3.387536e+06 3.558
20 regular 1 60 60 77 3 0.299 faster 1 3.387538e+06 3.387541e+06 3.916
20 regular 1 61 61 43 3 0.165 faster 0 3.387545e+06 3.387549e+06 3.712
20 regular 1 62 62 42 3 0.203 faster 0 3.387556e+06 3.387560e+06 3.799
20 regular 1 63 63 41 3 0.476 faster 0 3.387561e+06 3.387565e+06 3.749
20 regular 1 64 64 80 3 0.452 faster 1 3.387566e+06 3.387569e+06 3.769
20 regular 1 65 65 79 3 0.175 slower 0 3.387570e+06 3.387575e+06 4.498
20 regular 1 66 66 80 3 0.329 faster 1 3.387593e+06 3.387597e+06 3.616
20 regular 1 67 67 80 3 0.439 faster 1 3.387598e+06 3.387602e+06 3.448
20 regular 1 68 68 79 3 0.310 faster 1 3.387603e+06 3.387606e+06 3.563
20 regular 1 69 69 79 3 0.328 faster 1 3.387607e+06 3.387611e+06 3.511
20 regular 1 70 70 78 3 0.369 slower 0 3.387612e+06 3.387616e+06 3.914
20 regular 1 71 71 79 3 0.427 faster 1 3.387618e+06 3.387621e+06 3.722
20 regular 1 72 72 41 3 0.280 slower 1 3.387625e+06 3.387629e+06 3.780
20 regular 1 73 73 42 3 0.322 slower 1 3.387631e+06 3.387634e+06 3.696
20 regular 1 74 74 42 3 0.488 slower 1 3.387636e+06 3.387640e+06 4.098
20 regular 1 75 75 43 3 0.264 slower 1 3.387641e+06 3.387644e+06 3.811
20 regular 1 76 76 43 3 0.115 slower 1 3.387645e+06 3.387649e+06 3.788
20 regular 1 77 77 76 3 0.353 faster 1 3.387653e+06 3.387657e+06 3.714
20 regular 1 78 78 44 3 0.582 slower 1 3.387659e+06 3.387663e+06 3.884
20 regular 1 79 79 75 3 0.365 faster 1 3.387664e+06 3.387667e+06 3.553
20 regular 1 80 80 45 3 0.544 faster 0 3.387669e+06 3.387672e+06 3.341
20 regular 1 81 81 76 3 0.216 faster 1 3.387673e+06 3.387679e+06 5.686
20 regular 1 82 82 75 3 0.568 faster 1 3.387680e+06 3.387684e+06 3.658
20 regular 1 83 83 75 3 0.157 faster 1 3.387685e+06 3.387688e+06 3.721
20 regular 1 84 84 46 3 0.217 faster 0 3.387689e+06 3.387693e+06 3.907
20 regular 1 85 85 75 3 0.241 faster 1 3.387695e+06 3.387699e+06 3.802
20 regular 1 86 86 75 3 0.366 faster 1 3.387700e+06 3.387704e+06 3.579
20 regular 1 87 87 74 3 0.498 faster 1 3.387705e+06 3.387709e+06 3.725
20 regular 1 88 88 46 3 0.556 slower 1 3.387711e+06 3.387714e+06 3.643
20 regular 1 89 89 47 3 0.598 faster 0 3.387716e+06 3.387720e+06 3.528
20 regular 1 90 90 74 3 0.167 faster 1 3.387730e+06 3.387733e+06 3.588
20 regular 1 91 91 46 3 0.529 faster 0 3.387735e+06 3.387739e+06 3.828
20 regular 1 92 92 75 3 0.124 faster 1 3.387741e+06 3.387745e+06 4.000
20 regular 1 93 93 74 3 0.150 faster 1 3.387747e+06 3.387751e+06 3.516
20 regular 1 94 94 74 3 0.324 faster 1 3.387755e+06 3.387759e+06 3.646
20 regular 1 95 95 47 3 0.576 faster 0 3.387764e+06 3.387768e+06 3.660
20 regular 1 96 96 74 3 0.525 faster 1 3.387801e+06 3.387804e+06 3.812
20 regular 1 97 97 74 3 0.274 faster 1 3.387805e+06 3.387809e+06 3.749
20 regular 1 98 98 47 3 0.278 slower 1 3.387810e+06 3.387814e+06 3.655
20 regular 1 99 99 47 3 0.292 slower 1 3.387814e+06 3.387818e+06 3.837
20 regular 1 100 100 72 3 0.358 faster 1 3.387819e+06 3.387823e+06 3.826
20 irregular 2 1 101 48 2.500000e+00 0.152 faster 0 3.388585e+06 3.388588e+06 3.115
20 irregular 2 2 102 47 1 0.122 faster 0 3.388589e+06 3.388591e+06 1.710
20 irregular 2 3 103 74 3 0.188 faster 1 3.388592e+06 3.388595e+06 3.609
20 irregular 2 4 104 47 1.500000e+00 0.287 faster 0 3.388597e+06 3.388599e+06 2.125
20 irregular 2 5 105 46 2 0.240 slower 1 3.388600e+06 3.388603e+06 2.765
20 irregular 2 6 106 74 2.500000e+00 0.485 faster 1 3.388605e+06 3.388608e+06 3.152
20 irregular 2 7 107 73 2 0.504 faster 1 3.388610e+06 3.388613e+06 2.683
20 irregular 2 8 108 73 1.500000e+00 0.579 faster 1 3.388614e+06 3.388616e+06 2.157
20 irregular 2 9 109 48 1.500000e+00 0.324 slower 1 3.388618e+06 3.388620e+06 2.371
20 irregular 2 10 110 48 1 0.393 slower 1 3.388621e+06 3.388623e+06 1.683
20 irregular 2 11 111 49 1 0.284 slower 1 3.388625e+06 3.388626e+06 1.785
20 irregular 2 12 112 71 2 0.488 faster 1 3.388628e+06 3.388631e+06 2.649
20 irregular 2 13 113 70 2.500000e+00 0.352 faster 1 3.388632e+06 3.388635e+06 3.049
20 irregular 2 14 114 50 2 0.260 slower 1 3.388636e+06 3.388639e+06 3.163
20 irregular 2 15 115 69 1.500000e+00 0.471 faster 1 3.388640e+06 3.388643e+06 2.077
20 irregular 2 16 116 69 2 0.415 slower 0 3.388644e+06 3.388646e+06 2.471
20 irregular 2 17 117 50 2 0.291 faster 0 3.388647e+06 3.388650e+06 2.539
20 irregular 2 18 118 71 2.500000e+00 0.289 slower 0 3.388651e+06 3.388654e+06 3.204
20 irregular 2 19 119 48 1.500000e+00 0.493 slower 1 3.388655e+06 3.388658e+06 2.180
20 irregular 2 20 120 71 2.500000e+00 0.362 faster 1 3.388659e+06 3.388662e+06 3.075
20 irregular 2 21 121 49 3 0.114 slower 1 3.388663e+06 3.388667e+06 3.683
20 irregular 2 22 122 50 1 0.524 slower 1 3.388670e+06 3.388671e+06 1.752
20 irregular 2 23 123 50 1.500000e+00 0.247 slower 1 3.388673e+06 3.388675e+06 2.242
20 irregular 2 24 124 51 1.500000e+00 0.351 faster 0 3.388676e+06 3.388679e+06 2.254
20 irregular 2 25 125 50 2.500000e+00 0.451 slower 1 3.388680e+06 3.388684e+06 3.976
20 irregular 2 26 126 50 3 0.184 faster 0 3.388686e+06 3.388690e+06 4.326
20 irregular 2 27 127 71 1 0.517 faster 1 3.388692e+06 3.388694e+06 1.867
20 irregular 2 28 128 50 2 0.462 faster 0 3.388695e+06 3.388698e+06 2.576
20 irregular 2 29 129 71 2 0.582 faster 1 3.388700e+06 3.388702e+06 2.567
20 irregular 2 30 130 71 3 0.206 faster 1 3.388704e+06 3.388708e+06 3.567
20 irregular 2 31 131 50 2.500000e+00 0.505 faster 0 3.388709e+06 3.388713e+06 3.192
20 irregular 2 32 132 71 3 0.591 faster 1 3.388715e+06 3.388719e+06 3.723
20 irregular 2 33 133 49 2.500000e+00 0.343 slower 1 3.388720e+06 3.388724e+06 3.406
20 irregular 2 34 134 50 2.500000e+00 0.589 faster 0 3.388725e+06 3.388728e+06 3.042
20 irregular 2 35 135 71 1.500000e+00 0.509 faster 1 3.388730e+06 3.388733e+06 2.258
20 irregular 2 36 136 49 2 0.453 faster 0 3.388734e+06 3.388736e+06 2.711
20 irregular 2 37 137 72 1 0.562 faster 1 3.388738e+06 3.388740e+06 1.645
20 irregular 2 38 138 49 2 0.129 slower 1 3.388741e+06 3.388744e+06 2.602
20 irregular 2 39 139 71 3 0.361 faster 1 3.388745e+06 3.388748e+06 3.465
20 irregular 2 40 140 50 2.500000e+00 0.489 faster 0 3.388750e+06 3.388753e+06 2.968
20 irregular 2 41 141 71 3 0.489 faster 1 3.388755e+06 3.388758e+06 3.758
20 irregular 2 42 142 71 1.500000e+00 0.290 faster 1 3.388760e+06 3.388762e+06 2.440
20 irregular 2 43 143 50 1 0.376 faster 0 3.388764e+06 3.388766e+06 1.817
20 irregular 2 44 144 71 2 0.216 faster 1 3.388767e+06 3.388770e+06 2.672
20 irregular 2 45 145 71 1.500000e+00 0.220 faster 1 3.388771e+06 3.388774e+06 2.273
20 irregular 2 46 146 70 2.500000e+00 0.313 faster 1 3.388776e+06 3.388779e+06 3.296
20 irregular 2 47 147 70 2 0.371 slower 0 3.388782e+06 3.388785e+06 2.836
20 irregular 2 48 148 49 2.500000e+00 0.427 slower 1 3.388790e+06 3.388793e+06 3.276
20 irregular 2 49 149 70 2 0.203 faster 1 3.388796e+06 3.388798e+06 2.534
20 irregular 2 50 150 70 1 0.229 faster 1 3.388803e+06 3.388805e+06 1.932
20 irregular 2 51 151 69 3 0.539 faster 1 3.388806e+06 3.388810e+06 3.582
20 irregular 2 52 152 51 2 0.424 faster 0 3.388811e+06 3.388814e+06 2.807
20 irregular 2 53 153 70 1 0.348 faster 1 3.388822e+06 3.388824e+06 1.655
20 irregular 2 54 154 69 2.500000e+00 0.250 faster 1 3.388825e+06 3.388828e+06 3.085
20 irregular 2 55 155 51 2 0.119 faster 0 3.388829e+06 3.388831e+06 2.496
20 irregular 2 56 156 70 1.500000e+00 0.399 faster 1 3.388833e+06 3.388835e+06 2.017
20 irregular 2 57 157 51 1 0.168 faster 0 3.388837e+06 3.388839e+06 1.601
20 irregular 2 58 158 50 1.500000e+00 0.587 faster 0 3.388840e+06 3.388842e+06 2.078
20 irregular 2 59 159 71 3 0.572 faster 1 3.388844e+06 3.388847e+06 3.715
20 irregular 2 60 160 71 1.500000e+00 0.460 slower 0 3.388849e+06 3.388851e+06 2.232
20 irregular 2 61 161 72 2 0.595 faster 1 3.388853e+06 3.388855e+06 2.435
20 irregular 2 62 162 71 1 0.131 faster 1 3.388857e+06 3.388858e+06 1.642
20 irregular 2 63 163 49 1.500000e+00 0.320 faster 0 3.388860e+06 3.388862e+06 2.682
20 irregular 2 64 164 48 3 0.107 slower 1 3.388864e+06 3.388867e+06 3.697
20 irregular 2 65 165 71 3 0.344 faster 1 3.388869e+06 3.388873e+06 3.509
20 irregular 2 66 166 49 1 0.484 faster 0 3.388875e+06 3.388877e+06 1.682
20 irregular 2 67 167 72 1.500000e+00 0.573 faster 1 3.388878e+06 3.388880e+06 2.161
20 irregular 2 68 168 49 1 0.304 slower 1 3.388882e+06 3.388884e+06 1.976
20 irregular 2 69 169 49 1 0.215 slower 1 3.388885e+06 3.388887e+06 1.760
20 irregular 2 70 170 70 1 0.159 faster 1 3.388890e+06 3.388891e+06 1.555
20 irregular 2 71 171 70 2.500000e+00 0.554 faster 1 3.388893e+06 3.388896e+06 3.119
20 irregular 2 72 172 69 2 0.192 faster 1 3.388898e+06 3.388900e+06 2.642
20 irregular 2 73 173 69 1.500000e+00 0.256 faster 1 3.388902e+06 3.388905e+06 2.203
20 irregular 2 74 174 52 1.500000e+00 0.395 faster 0 3.388906e+06 3.388908e+06 2.096
20 irregular 2 75 175 51 3 0.481 faster 0 3.388910e+06 3.388913e+06 3.687
20 irregular 2 76 176 70 3 0.191 faster 1 3.388915e+06 3.388918e+06 3.682
20 irregular 2 77 177 50 3 0.222 faster 0 3.388920e+06 3.388923e+06 3.515
20 irregular 2 78 178 49 2.500000e+00 0.138 faster 0 3.388925e+06 3.388928e+06 3.149
20 irregular 2 79 179 72 3 0.107 faster 1 3.388929e+06 3.388933e+06 3.658
20 irregular 2 80 180 49 3 0.550 faster 0 3.388935e+06 3.388938e+06 3.664
20 irregular 2 81 181 48 2.500000e+00 0.367 faster 0 3.388939e+06 3.388942e+06 3.138
20 irregular 2 82 182 73 2.500000e+00 0.123 faster 1 3.388943e+06 3.388947e+06 3.142
20 irregular 2 83 183 47 3 0.369 slower 1 3.388949e+06 3.388952e+06 3.749
20 irregular 2 84 184 48 2 0.579 faster 0 3.388961e+06 3.388964e+06 2.575
20 irregular 2 85 185 47 3 0.203 faster 0 3.388965e+06 3.388968e+06 3.599
20 irregular 2 86 186 74 1.500000e+00 0.103 faster 1 3.388970e+06 3.388972e+06 2.001
20 irregular 2 87 187 46 1 0.323 slower 1 3.388974e+06 3.388975e+06 1.745
20 irregular 2 88 188 47 1.500000e+00 0.111 faster 0 3.388977e+06 3.388979e+06 2.217
20 irregular 2 89 189 74 2.500000e+00 0.256 faster 1 3.388980e+06 3.388983e+06 3.184
20 irregular 2 90 190 46 2 0.317 faster 0 3.388985e+06 3.388988e+06 2.674
20 irregular 2 91 191 45 3 0.334 slower 1 3.388990e+06 3.388994e+06 3.811
20 irregular 2 92 192 74 2 0.250 faster 1 3.388995e+06 3.388998e+06 2.625
20 irregular 2 93 193 74 1 0.499 faster 1 3.388999e+06 3.389001e+06 1.857
20 irregular 2 94 194 73 1 0.230 faster 1 3.389002e+06 3.389004e+06 1.699
20 irregular 2 95 195 73 1 0.341 faster 1 3.389005e+06 3.389007e+06 1.582
20 irregular 2 96 196 48 2.500000e+00 0.181 slower 1 3.389008e+06 3.389011e+06 3.223
20 irregular 2 97 197 72 1 0.568 faster 1 3.389013e+06 3.389015e+06 1.639
20 irregular 2 98 198 49 3 0.109 slower 1 3.389016e+06 3.389020e+06 3.726
20 irregular 2 99 199 71 2.500000e+00 0.153 faster 1 3.389021e+06 3.389024e+06 2.985
20 irregular 2 100 200 50 1.500000e+00 0.199 slower 1 3.389025e+06 3.389027e+06 2.253
20 regular 3 1 201 50 2 0.240 faster 0 3.389189e+06 3.389192e+06 2.891
20 regular 3 2 202 71 2 0.146 faster 1 3.389193e+06 3.389195e+06 2.593
20 regular 3 3 203 70 2 0.583 faster 1 3.389197e+06 3.389200e+06 2.559
20 regular 3 4 204 70 2 0.529 faster 1 3.389201e+06 3.389203e+06 2.651
20 regular 3 5 205 51 2 0.143 faster 0 3.389205e+06 3.389207e+06 2.565
20 regular 3 6 206 70 2 0.355 faster 1 3.389209e+06 3.389211e+06 2.586
20 regular 3 7 207 50 2 0.464 slower 1 3.389213e+06 3.389216e+06 2.730
20 regular 3 8 208 69 2 0.147 faster 1 3.389217e+06 3.389220e+06 2.743
20 regular 3 9 209 51 2 0.580 faster 0 3.389222e+06 3.389225e+06 2.875
20 regular 3 10 210 70 2 0.475 faster 1 3.389228e+06 3.389231e+06 2.639
20 regular 3 11 211 51 2 0.504 slower 1 3.389232e+06 3.389235e+06 2.847
20 regular 3 12 212 51 2 0.275 faster 0 3.389236e+06 3.389239e+06 2.709
20 regular 3 13 213 70 2 0.323 faster 1 3.389241e+06 3.389244e+06 2.808
20 regular 3 14 214 69 2 0.271 faster 1 3.389248e+06 3.389250e+06 2.633
20 regular 3 15 215 51 2 0.426 slower 1 3.389254e+06 3.389257e+06 2.996
20 regular 3 16 216 52 2 0.522 faster 0 3.389261e+06 3.389263e+06 2.545
20 regular 3 17 217 51 2 0.377 faster 0 3.389266e+06 3.389269e+06 2.701
20 regular 3 18 218 70 2 0.274 faster 1 3.389271e+06 3.389274e+06 2.611
20 regular 3 19 219 50 2 0.251 faster 0 3.389275e+06 3.389278e+06 2.679
20 regular 3 20 220 71 2 0.400 faster 1 3.389279e+06 3.389282e+06 2.653
20 regular 3 21 221 50 2 0.339 slower 1 3.389285e+06 3.389287e+06 2.775
20 regular 3 22 222 70 2 0.511 faster 1 3.389289e+06 3.389292e+06 2.656
20 regular 3 23 223 51 2 0.581 faster 0 3.389293e+06 3.389296e+06 2.718
20 regular 3 24 224 50 2 0.524 faster 0 3.389298e+06 3.389301e+06 3.000
20 regular 3 25 225 71 2 0.168 faster 1 3.389302e+06 3.389305e+06 2.653
20 regular 3 26 226 71 2 0.146 slower 0 3.389307e+06 3.389310e+06 2.682
20 regular 3 27 227 72 2 0.434 faster 1 3.389313e+06 3.389315e+06 2.642
20 regular 3 28 228 71 2 0.267 faster 1 3.389317e+06 3.389319e+06 2.599
20 regular 3 29 229 71 2 0.217 faster 1 3.389321e+06 3.389323e+06 2.566
20 regular 3 30 230 50 2 0.198 faster 0 3.389326e+06 3.389328e+06 2.771
20 regular 3 31 231 49 2 0.575 slower 1 3.389330e+06 3.389333e+06 2.722
20 regular 3 32 232 49 2 0.207 slower 1 3.389334e+06 3.389337e+06 2.900
20 regular 3 33 233 70 2 0.106 slower 0 3.389338e+06 3.389341e+06 2.959
20 regular 3 34 234 49 2 0.146 faster 0 3.389342e+06 3.389345e+06 2.652
20 regular 3 35 235 48 2 0.584 slower 1 3.389347e+06 3.389349e+06 2.722
20 regular 3 36 236 48 2 0.316 slower 1 3.389352e+06 3.389354e+06 2.734
20 regular 3 37 237 49 2 0.391 slower 1 3.389356e+06 3.389359e+06 2.818
20 regular 3 38 238 49 2 0.119 faster 0 3.389360e+06 3.389363e+06 2.643
20 regular 3 39 239 48 2 0.596 faster 0 3.389365e+06 3.389368e+06 2.680
20 regular 3 40 240 47 2 0.441 faster 0 3.389371e+06 3.389374e+06 2.717
20 regular 3 41 241 74 2 0.161 faster 1 3.389375e+06 3.389378e+06 2.659
20 regular 3 42 242 47 2 0.515 faster 0 3.389380e+06 3.389383e+06 3.036
20 regular 3 43 243 46 2 0.300 slower 1 3.389384e+06 3.389387e+06 2.715
20 regular 3 44 244 74 2 0.595 faster 1 3.389389e+06 3.389391e+06 2.729
20 regular 3 45 245 73 2 0.566 faster 1 3.389393e+06 3.389395e+06 2.747
20 regular 3 46 246 47 2 0.344 faster 0 3.389398e+06 3.389400e+06 2.801
20 regular 3 47 247 74 2 0.585 faster 1 3.389402e+06 3.389405e+06 2.621
20 regular 3 48 248 73 2 0.267 faster 1 3.389406e+06 3.389408e+06 2.692
20 regular 3 49 249 73 2 0.241 faster 1 3.389414e+06 3.389417e+06 2.631
20 regular 3 50 250 72 2 0.505 faster 1 3.389419e+06 3.389421e+06 2.701
20 regular 3 51 251 72 2 0.219 faster 1 3.389423e+06 3.389425e+06 2.764
20 regular 3 52 252 49 2 0.297 slower 1 3.389427e+06 3.389429e+06 2.594
20 regular 3 53 253 71 2 0.139 faster 1 3.389432e+06 3.389434e+06 2.683
20 regular 3 54 254 70 2 0.186 faster 1 3.389440e+06 3.389442e+06 2.750
20 regular 3 55 255 70 2 0.118 faster 1 3.389444e+06 3.389447e+06 2.600
20 regular 3 56 256 51 2 0.326 faster 0 3.389449e+06 3.389452e+06 2.899
20 regular 3 57 257 50 2 0.336 faster 0 3.389454e+06 3.389457e+06 2.470
20 regular 3 58 258 49 2 0.124 faster 0 3.389458e+06 3.389461e+06 2.779
20 regular 3 59 259 48 2 0.161 faster 0 3.389462e+06 3.389464e+06 2.618
20 regular 3 60 260 47 2 0.287 faster 0 3.389466e+06 3.389469e+06 2.704
20 regular 3 61 261 46 2 0.584 none 2 3.389471e+06 3.389476e+06 5.000
20 regular 3 62 262 46 2 0.401 faster 0 3.389477e+06 3.389479e+06 2.692
20 regular 3 63 263 75 2 0.484 faster 1 3.389482e+06 3.389484e+06 2.679
20 regular 3 64 264 75 2 0.161 faster 1 3.389486e+06 3.389489e+06 2.748
20 regular 3 65 265 74 2 0.131 faster 1 3.389490e+06 3.389493e+06 2.796
20 regular 3 66 266 74 2 0.580 faster 1 3.389495e+06 3.389497e+06 2.567
20 regular 3 67 267 73 2 0.381 faster 1 3.389499e+06 3.389501e+06 2.569
20 regular 3 68 268 47 2 0.311 faster 0 3.389502e+06 3.389505e+06 2.665
20 regular 3 69 269 74 2 0.146 faster 1 3.389506e+06 3.389508e+06 2.560
20 regular 3 70 270 47 2 0.525 faster 0 3.389510e+06 3.389512e+06 2.514
20 regular 3 71 271 46 2 0.239 faster 0 3.389513e+06 3.389515e+06 2.516
20 regular 3 72 272 75 2 0.576 faster 1 3.389517e+06 3.389519e+06 2.596
20 regular 3 73 273 75 2 0.117 faster 1 3.389520e+06 3.389523e+06 2.745
20 regular 3 74 274 46 2 0.533 slower 1 3.389527e+06 3.389530e+06 2.822
20 regular 3 75 275 46 2 0.517 slower 1 3.389531e+06 3.389534e+06 2.897
20 regular 3 76 276 73 2 0.263 faster 1 3.389535e+06 3.389538e+06 3.025
20 regular 3 77 277 73 2 0.209 faster 1 3.389541e+06 3.389543e+06 2.695
20 regular 3 78 278 48 2 0.526 faster 0 3.389548e+06 3.389552e+06 3.183
20 regular 3 79 279 73 2 0.318 faster 1 3.389553e+06 3.389556e+06 2.733
20 regular 3 80 280 73 2 0.217 faster 1 3.389558e+06 3.389561e+06 2.625
20 regular 3 81 281 72 2 0.389 faster 1 3.389562e+06 3.389565e+06 2.778
20 regular 3 82 282 48 2 0.292 slower 1 3.389566e+06 3.389570e+06 3.739
20 regular 3 83 283 71 2 0.600 faster 1 3.389571e+06 3.389574e+06 2.765
20 regular 3 84 284 71 2 0.227 faster 1 3.389586e+06 3.389589e+06 2.571
20 regular 3 85 285 50 2 0.439 slower 1 3.389591e+06 3.389594e+06 2.986
20 regular 3 86 286 70 2 0.358 faster 1 3.389620e+06 3.389623e+06 2.604
20 regular 3 87 287 51 2 0.573 faster 0 3.389625e+06 3.389627e+06 2.439
20 regular 3 88 288 50 2 0.202 faster 0 3.389629e+06 3.389631e+06 2.460
20 regular 3 89 289 71 2 0.450 faster 1 3.389633e+06 3.389635e+06 2.524
20 regular 3 90 290 49 2 0.326 faster 0 3.389636e+06 3.389639e+06 2.538
20 regular 3 91 291 72 2 0.368 faster 1 3.389641e+06 3.389644e+06 2.575
20 regular 3 92 292 71 2 0.258 faster 1 3.389647e+06 3.389650e+06 2.693
20 regular 3 93 293 49 2 0.204 faster 0 3.389652e+06 3.389654e+06 2.559
20 regular 3 94 294 48 2 0.209 faster 0 3.389657e+06 3.389660e+06 2.505
20 regular 3 95 295 73 2 0.471 faster 1 3.389661e+06 3.389664e+06 2.485
20 regular 3 96 296 48 2 0.150 faster 0 3.389665e+06 3.389667e+06 2.439
20 regular 3 97 297 47 2 0.262 faster 0 3.389673e+06 3.389676e+06 2.592
20 regular 3 98 298 74 2 0.321 faster 1 3.389677e+06 3.389680e+06 2.627
20 regular 3 99 299 74 2 0.271 faster 1 3.389680e+06 3.389683e+06 2.519
20 regular 3 100 300 47 2 0.442 faster 0 3.389684e+06 3.389687e+06 2.448
20 irregular 4 1 301 74 1 0.413 faster 1 3.390028e+06 3.390029e+06 1.613
20 irregular 4 2 302 46 1 0.474 faster 0 3.390031e+06 3.390032e+06 1.534
20 irregular 4 3 303 75 2.500000e+00 0.553 faster 1 3.390034e+06 3.390037e+06 3.097
20 irregular 4 4 304 74 1 0.586 faster 1 3.390038e+06 3.390040e+06 1.612
20 irregular 4 5 305 46 2.500000e+00 0.373 slower 1 3.390041e+06 3.390044e+06 3.274
20 irregular 4 6 306 47 1.500000e+00 0.384 faster 0 3.390045e+06 3.390047e+06 2.171
20 irregular 4 7 307 74 2.500000e+00 0.139 faster 1 3.390048e+06 3.390052e+06 3.068
20 irregular 4 8 308 46 1.500000e+00 0.373 slower 1 3.390053e+06 3.390055e+06 2.235
20 irregular 4 9 309 47 2 0.568 faster 0 3.390056e+06 3.390059e+06 2.606
20 irregular 4 10 310 46 2 0.338 faster 0 3.390062e+06 3.390064e+06 2.583
20 irregular 4 11 311 45 2 0.245 faster 0 3.390068e+06 3.390070e+06 2.597
20 irregular 4 12 312 44 1.500000e+00 0.143 slower 1 3.390071e+06 3.390074e+06 2.270
20 irregular 4 13 313 76 2.500000e+00 0.477 faster 1 3.390075e+06 3.390078e+06 3.253
20 irregular 4 14 314 75 3 0.268 slower 0 3.390079e+06 3.390083e+06 3.749
20 irregular 4 15 315 44 2 0.436 slower 1 3.390085e+06 3.390088e+06 2.891
20 irregular 4 16 316 76 2.500000e+00 0.272 faster 1 3.390092e+06 3.390096e+06 3.934
20 irregular 4 17 317 75 1 0.172 faster 1 3.390097e+06 3.390099e+06 1.692
20 irregular 4 18 318 45 1 0.251 faster 0 3.390099e+06 3.390101e+06 1.655
20 irregular 4 19 319 76 1.500000e+00 0.108 faster 1 3.390102e+06 3.390104e+06 2.074
20 irregular 4 20 320 75 1.500000e+00 0.335 faster 1 3.390105e+06 3.390107e+06 2.075
20 irregular 4 21 321 75 3 0.296 slower 0 3.390108e+06 3.390112e+06 3.899
20 irregular 4 22 322 44 1 0.402 slower 1 3.390117e+06 3.390119e+06 1.859
20 irregular 4 23 323 75 3 0.363 faster 1 3.390124e+06 3.390127e+06 3.630
20 irregular 4 24 324 45 2.500000e+00 0.302 faster 0 3.390129e+06 3.390132e+06 3.206
20 irregular 4 25 325 44 1 0.119 faster 0 3.390135e+06 3.390137e+06 1.667
20 irregular 4 26 326 43 1 0.156 slower 1 3.390138e+06 3.390139e+06 1.660
20 irregular 4 27 327 76 2.500000e+00 0.292 faster 1 3.390141e+06 3.390144e+06 3.166
20 irregular 4 28 328 76 1.500000e+00 0.274 faster 1 3.390145e+06 3.390148e+06 2.116
20 irregular 4 29 329 75 2.500000e+00 0.496 faster 1 3.390149e+06 3.390152e+06 3.178
20 irregular 4 30 330 45 2.500000e+00 0.321 slower 1 3.390154e+06 3.390157e+06 3.206
20 irregular 4 31 331 46 1 0.246 slower 1 3.390158e+06 3.390160e+06 1.943
20 irregular 4 32 332 46 2.500000e+00 0.512 faster 0 3.390161e+06 3.390165e+06 3.247
20 irregular 4 33 333 45 1.500000e+00 0.448 slower 1 3.390166e+06 3.390168e+06 2.338
20 irregular 4 34 334 46 2.500000e+00 0.126 faster 0 3.390171e+06 3.390174e+06 3.104
20 irregular 4 35 335 75 3 0.533 faster 1 3.390176e+06 3.390180e+06 3.669
20 irregular 4 36 336 45 2.500000e+00 0.466 slower 1 3.390182e+06 3.390185e+06 3.270
20 irregular 4 37 337 46 3 0.480 slower 1 3.390187e+06 3.390191e+06 4.017
20 irregular 4 38 338 74 3 0.369 faster 1 3.390192e+06 3.390196e+06 3.592
20 irregular 4 39 339 47 3 0.426 slower 1 3.390197e+06 3.390201e+06 3.850
20 irregular 4 40 340 73 1 0.496 faster 1 3.390202e+06 3.390204e+06 1.940
20 irregular 4 41 341 48 1.500000e+00 0.562 faster 0 3.390205e+06 3.390208e+06 2.142
20 irregular 4 42 342 47 1.500000e+00 0.553 slower 1 3.390209e+06 3.390212e+06 2.206
20 irregular 4 43 343 47 2 0.514 faster 0 3.390213e+06 3.390216e+06 2.622
20 irregular 4 44 344 46 1 0.589 faster 0 3.390217e+06 3.390219e+06 1.872
20 irregular 4 45 345 45 3 0.447 faster 0 3.390220e+06 3.390224e+06 3.591
20 irregular 4 46 346 76 3 0.582 faster 1 3.390225e+06 3.390229e+06 3.750
20 irregular 4 47 347 45 2.500000e+00 0.459 slower 1 3.390231e+06 3.390234e+06 3.146
20 irregular 4 48 348 45 3 0.501 slower 1 3.390237e+06 3.390241e+06 3.690
20 irregular 4 49 349 74 2.500000e+00 0.416 faster 1 3.390242e+06 3.390245e+06 3.157
20 irregular 4 50 350 46 2.500000e+00 0.273 faster 0 3.390246e+06 3.390249e+06 3.085
20 irregular 4 51 351 75 2 0.346 faster 1 3.390250e+06 3.390253e+06 2.569
20 irregular 4 52 352 74 3 0.180 faster 1 3.390254e+06 3.390258e+06 3.579
20 irregular 4 53 353 74 2 0.329 faster 1 3.390259e+06 3.390262e+06 2.648
20 irregular 4 54 354 47 3 0.187 slower 1 3.390263e+06 3.390266e+06 3.711
20 irregular 4 55 355 47 3 0.287 faster 0 3.390268e+06 3.390272e+06 3.638
20 irregular 4 56 356 74 2 0.293 none 2 3.390273e+06 3.390278e+06 4.999
20 irregular 4 57 357 46 3 0.406 faster 0 3.390279e+06 3.390283e+06 3.745
20 irregular 4 58 358 45 2.500000e+00 0.102 faster 0 3.390284e+06 3.390287e+06 3.101
20 irregular 4 59 359 44 1.500000e+00 0.382 slower 1 3.390289e+06 3.390291e+06 2.282
20 irregular 4 60 360 75 1.500000e+00 0.276 faster 1 3.390292e+06 3.390294e+06 2.095
20 irregular 4 61 361 75 2 0.446 faster 1 3.390296e+06 3.390298e+06 2.516
20 irregular 4 62 362 74 2.500000e+00 0.235 slower 0 3.390299e+06 3.390303e+06 3.105
20 irregular 4 63 363 45 1.500000e+00 0.238 faster 0 3.390303e+06 3.390306e+06 2.153
20 irregular 4 64 364 44 2 0.383 faster 0 3.390308e+06 3.390310e+06 2.712
20 irregular 4 65 365 77 3 0.521 faster 1 3.390312e+06 3.390315e+06 3.604
20 irregular 4 66 366 77 2 0.487 faster 1 3.390316e+06 3.390319e+06 2.584
20 irregular 4 67 367 44 1 0.364 slower 1 3.390321e+06 3.390322e+06 1.768
20 irregular 4 68 368 76 1.500000e+00 0.498 faster 1 3.390324e+06 3.390326e+06 1.962
20 irregular 4 69 369 45 2.500000e+00 0.521 slower 1 3.390327e+06 3.390330e+06 3.043
20 irregular 4 70 370 45 1 0.598 slower 1 3.390331e+06 3.390333e+06 1.858
20 irregular 4 71 371 46 2 0.368 slower 1 3.390334e+06 3.390337e+06 2.587
20 irregular 4 72 372 46 3 0.418 faster 0 3.390338e+06 3.390342e+06 3.744
20 irregular 4 73 373 45 1 0.541 faster 0 3.390343e+06 3.390345e+06 1.674
20 irregular 4 74 374 76 1.500000e+00 0.118 faster 1 3.390347e+06 3.390349e+06 2.127
20 irregular 4 75 375 75 1 0.438 faster 1 3.390351e+06 3.390352e+06 1.646
20 irregular 4 76 376 75 1.500000e+00 0.129 faster 1 3.390353e+06 3.390356e+06 2.139
20 irregular 4 77 377 74 2 0.143 faster 1 3.390356e+06 3.390359e+06 2.527
20 irregular 4 78 378 74 2.500000e+00 0.177 faster 1 3.390360e+06 3.390363e+06 3.115
20 irregular 4 79 379 73 1 0.495 faster 1 3.390364e+06 3.390366e+06 1.791
20 irregular 4 80 380 47 3 0.575 slower 1 3.390367e+06 3.390371e+06 3.855
20 irregular 4 81 381 72 1.500000e+00 0.349 faster 1 3.390373e+06 3.390375e+06 2.097
20 irregular 4 82 382 72 1 0.230 faster 1 3.390376e+06 3.390378e+06 1.631
20 irregular 4 83 383 71 1.500000e+00 0.596 slower 0 3.390379e+06 3.390381e+06 2.040
20 irregular 4 84 384 72 3 0.102 slower 0 3.390383e+06 3.390386e+06 3.746
20 irregular 4 85 385 73 2 0.340 faster 1 3.390387e+06 3.390390e+06 2.688
20 irregular 4 86 386 47 2 0.436 slower 1 3.390392e+06 3.390395e+06 2.581
20 irregular 4 87 387 72 3 0.296 faster 1 3.390396e+06 3.390400e+06 3.546
20 irregular 4 88 388 72 1.500000e+00 0.210 none 2 3.390401e+06 3.390405e+06 4.499
20 irregular 4 89 389 48 3 0.418 none 2 3.390406e+06 3.390412e+06 6.000
20 irregular 4 90 390 72 1 0.430 faster 1 3.390413e+06 3.390415e+06 1.625
20 irregular 4 91 391 71 2 0.408 faster 1 3.390417e+06 3.390420e+06 2.684
20 irregular 4 92 392 71 2 0.132 slower 0 3.390420e+06 3.390423e+06 2.824
20 irregular 4 93 393 48 1.500000e+00 0.496 faster 0 3.390425e+06 3.390427e+06 2.169
20 irregular 4 94 394 73 2.500000e+00 0.389 slower 0 3.390429e+06 3.390432e+06 3.320
20 irregular 4 95 395 74 1 0.168 faster 1 3.390434e+06 3.390436e+06 1.702
20 irregular 4 96 396 73 1 0.597 faster 1 3.390438e+06 3.390439e+06 1.579
20 irregular 4 97 397 47 2 0.190 slower 1 3.390441e+06 3.390443e+06 2.696
20 irregular 4 98 398 48 1.500000e+00 0.524 slower 1 3.390445e+06 3.390447e+06 2.235
20 irregular 4 99 399 48 2 0.485 slower 1 3.390449e+06 3.390451e+06 2.598
20 irregular 4 100 400 71 2 0.248 slower 0 3.390452e+06 3.390455e+06 2.741
20 regular 5 1 401 72 1 0.220 faster 1 3.390769e+06 3.390771e+06 1.577
20 regular 5 2 402 72 1 0.113 faster 1 3.390772e+06 3.390773e+06 1.634
20 regular 5 3 403 71 1 0.123 faster 1 3.390774e+06 3.390776e+06 1.554
20 regular 5 4 404 71 1 0.501 faster 1 3.390777e+06 3.390779e+06 1.482
20 regular 5 5 405 50 1 0.217 faster 0 3.390780e+06 3.390781e+06 1.562
20 regular 5 6 406 49 1 0.238 faster 0 3.390784e+06 3.390785e+06 1.515
20 regular 5 7 407 72 1 0.378 faster 1 3.390786e+06 3.390789e+06 2.076
20 regular 5 8 408 72 1 0.130 faster 1 3.390789e+06 3.390791e+06 1.559
20 regular 5 9 409 49 1 0.196 slower 1 3.390792e+06 3.390793e+06 1.579
20 regular 5 10 410 71 1 0.519 faster 1 3.390794e+06 3.390796e+06 1.540
20 regular 5 11 411 50 1 0.346 slower 1 3.390798e+06 3.390800e+06 1.965
20 regular 5 12 412 50 1 0.579 faster 0 3.390802e+06 3.390803e+06 1.626
20 regular 5 13 413 49 1 0.111 faster 0 3.390804e+06 3.390806e+06 1.552
20 regular 5 14 414 48 1 0.584 slower 1 3.390807e+06 3.390809e+06 1.622
20 regular 5 15 415 49 1 0.379 faster 0 3.390810e+06 3.390812e+06 2.040
20 regular 5 16 416 48 1 0.123 faster 0 3.390812e+06 3.390814e+06 1.740
20 regular 5 17 417 47 1 0.397 slower 1 3.390817e+06 3.390819e+06 1.761
20 regular 5 18 418 73 1 0.527 faster 1 3.390820e+06 3.390822e+06 1.545
20 regular 5 19 419 48 1 0.179 faster 0 3.390823e+06 3.390825e+06 1.772
20 regular 5 20 420 47 1 0.335 slower 1 3.390826e+06 3.390827e+06 1.571
20 regular 5 21 421 47 1 0.274 faster 0 3.390829e+06 3.390831e+06 1.897
20 regular 5 22 422 46 1 0.231 slower 1 3.390832e+06 3.390834e+06 1.647
20 regular 5 23 423 73 1 0.420 faster 1 3.390835e+06 3.390837e+06 1.615
20 regular 5 24 424 47 1 0.341 slower 1 3.390837e+06 3.390839e+06 1.578
20 regular 5 25 425 72 1 0.507 faster 1 3.390840e+06 3.390842e+06 1.693
20 regular 5 26 426 48 1 0.148 slower 1 3.390843e+06 3.390844e+06 1.635
20 regular 5 27 427 49 1 0.258 faster 0 3.390846e+06 3.390848e+06 1.620
20 regular 5 28 428 72 1 0.107 slower 0 3.390849e+06 3.390850e+06 1.595
20 regular 5 29 429 47 1 0.276 faster 0 3.390851e+06 3.390853e+06 1.609
20 regular 5 30 430 74 1 0.136 faster 1 3.390855e+06 3.390857e+06 1.643
20 regular 5 31 431 46 1 0.450 faster 0 3.390858e+06 3.390860e+06 1.672
20 regular 5 32 432 75 1 0.290 faster 1 3.390861e+06 3.390863e+06 1.561
20 regular 5 33 433 74 1 0.111 faster 1 3.390864e+06 3.390866e+06 1.692
20 regular 5 34 434 74 1 0.532 faster 1 3.390867e+06 3.390869e+06 1.574
20 regular 5 35 435 47 1 0.303 faster 0 3.390870e+06 3.390871e+06 1.552
20 regular 5 36 436 46 1 0.393 slower 1 3.390872e+06 3.390874e+06 1.905
20 regular 5 37 437 46 1 0.117 slower 1 3.390875e+06 3.390877e+06 1.658
20 regular 5 38 438 73 1 0.167 faster 1 3.390877e+06 3.390879e+06 1.580
20 regular 5 39 439 73 1 0.435 faster 1 3.390880e+06 3.390882e+06 1.590
20 regular 5 40 440 72 1 0.429 faster 1 3.390884e+06 3.390886e+06 1.626
20 regular 5 41 441 48 1 0.261 faster 0 3.390887e+06 3.390889e+06 1.547
20 regular 5 42 442 73 1 0.278 faster 1 3.390890e+06 3.390891e+06 1.639
20 regular 5 43 443 48 1 0.185 faster 0 3.390892e+06 3.390894e+06 1.550
20 regular 5 44 444 47 1 0.270 faster 0 3.390895e+06 3.390897e+06 1.608
20 regular 5 45 445 74 1 0.309 faster 1 3.390898e+06 3.390899e+06 1.493
20 regular 5 46 446 46 1 0.470 faster 0 3.390901e+06 3.390902e+06 1.342
20 regular 5 47 447 75 1 0.129 faster 1 3.390903e+06 3.390904e+06 1.670
20 regular 5 48 448 74 1 0.111 slower 0 3.390905e+06 3.390907e+06 1.608
20 regular 5 49 449 75 1 0.379 faster 1 3.390908e+06 3.390909e+06 1.569
20 regular 5 50 450 75 1 0.547 faster 1 3.390914e+06 3.390916e+06 2.171
20 regular 5 51 451 74 1 0.451 faster 1 3.390917e+06 3.390918e+06 1.648
20 regular 5 52 452 74 1 0.175 faster 1 3.390920e+06 3.390921e+06 1.658
20 regular 5 53 453 73 1 0.497 faster 1 3.390922e+06 3.390924e+06 1.667
20 regular 5 54 454 73 1 0.141 faster 1 3.390925e+06 3.390927e+06 1.848
20 regular 5 55 455 48 1 0.429 slower 1 3.390929e+06 3.390931e+06 1.629
20 regular 5 56 456 72 1 0.147 faster 1 3.390932e+06 3.390934e+06 1.713
20 regular 5 57 457 49 1 0.364 faster 0 3.390935e+06 3.390937e+06 1.542
20 regular 5 58 458 48 1 0.241 slower 1 3.390937e+06 3.390939e+06 1.544
20 regular 5 59 459 48 1 0.190 faster 0 3.390940e+06 3.390941e+06 1.531
20 regular 5 60 460 73 1 0.575 slower 0 3.390943e+06 3.390944e+06 1.488
20 regular 5 61 461 46 1 0.113 slower 1 3.390948e+06 3.390949e+06 1.576
20 regular 5 62 462 47 1 0.204 faster 0 3.390950e+06 3.390952e+06 1.379
20 regular 5 63 463 74 1 0.286 faster 1 3.390953e+06 3.390954e+06 1.544
20 regular 5 64 464 46 1 0.210 slower 1 3.390955e+06 3.390956e+06 1.442
20 regular 5 65 465 47 1 0.495 faster 0 3.390957e+06 3.390959e+06 1.659
20 regular 5 66 466 74 1 0.228 faster 1 3.390961e+06 3.390963e+06 1.834
20 regular 5 67 467 46 1 0.512 faster 0 3.390969e+06 3.390970e+06 1.482
20 regular 5 68 468 45 1 0.260 slower 1 3.390971e+06 3.390972e+06 1.521
20 regular 5 69 469 74 1 0.393 faster 1 3.390974e+06 3.390975e+06 1.504
20 regular 5 70 470 74 1 0.547 faster 1 3.390977e+06 3.390978e+06 1.582
20 regular 5 71 471 47 1 0.504 slower 1 3.390980e+06 3.390981e+06 1.573
20 regular 5 72 472 47 1 0.389 faster 0 3.390982e+06 3.390984e+06 1.539
20 regular 5 73 473 74 1 0.500 faster 1 3.390985e+06 3.390987e+06 1.481
20 regular 5 74 474 73 1 0.463 slower 0 3.390988e+06 3.390990e+06 1.701
20 regular 5 75 475 74 1 0.581 faster 1 3.390991e+06 3.390993e+06 1.312
20 regular 5 76 476 74 1 0.593 none 2 3.390994e+06 3.390998e+06 4.000
20 regular 5 77 477 74 1 0.318 faster 1 3.390999e+06 3.391000e+06 1.484
20 regular 5 78 478 73 1 0.233 faster 1 3.391012e+06 3.391014e+06 1.549
20 regular 5 79 479 73 1 0.324 faster 1 3.391015e+06 3.391017e+06 1.556
20 regular 5 80 480 72 1 0.545 faster 1 3.391027e+06 3.391029e+06 1.470
20 regular 5 81 481 48 1 0.228 slower 1 3.391030e+06 3.391032e+06 1.556
20 regular 5 82 482 49 1 0.211 faster 0 3.391033e+06 3.391034e+06 1.572
20 regular 5 83 483 48 1 0.279 slower 1 3.391036e+06 3.391037e+06 1.596
20 regular 5 84 484 48 1 0.142 slower 1 3.391038e+06 3.391040e+06 1.635
20 regular 5 85 485 71 1 0.528 faster 1 3.391041e+06 3.391043e+06 1.634
20 regular 5 86 486 49 1 0.413 slower 1 3.391044e+06 3.391046e+06 1.557
20 regular 5 87 487 50 1 0.517 faster 0 3.391047e+06 3.391049e+06 1.670
20 regular 5 88 488 49 1 0.404 faster 0 3.391050e+06 3.391052e+06 1.628
20 regular 5 89 489 48 1 0.325 slower 1 3.391054e+06 3.391056e+06 2.025
20 regular 5 90 490 48 1 0.346 faster 0 3.391057e+06 3.391059e+06 1.564
20 regular 5 91 491 73 1 0.397 faster 1 3.391060e+06 3.391062e+06 1.787
20 regular 5 92 492 48 1 0.344 slower 1 3.391063e+06 3.391065e+06 1.612
20 regular 5 93 493 72 1 0.138 faster 1 3.391065e+06 3.391067e+06 1.650
20 regular 5 94 494 71 1 0.449 faster 1 3.391069e+06 3.391071e+06 1.875
20 regular 5 95 495 49 1 0.111 slower 1 3.391072e+06 3.391074e+06 2.113
20 regular 5 96 496 50 1 0.288 faster 0 3.391075e+06 3.391076e+06 1.607
20 regular 5 97 497 71 1 0.325 faster 1 3.391077e+06 3.391079e+06 1.607
20 regular 5 98 498 71 1 0.584 faster 1 3.391080e+06 3.391082e+06 1.502
20 regular 5 99 499 70 1 0.354 faster 1 3.391083e+06 3.391084e+06 1.544
20 regular 5 100 500 70 1 0.192 slower 0 3.391087e+06 3.391088e+06 1.511
20 irregular 6 1 501 73 1 0.240 faster 1 1.020844e+05 1.020861e+05 1.690
20 irregular 6 2 502 47 1.500000e+00 0.146 slower 1 1.020869e+05 1.020891e+05 2.158
20 irregular 6 3 503 71 3 0.583 faster 1 1.020903e+05 1.020941e+05 3.727
20 irregular 6 4 504 71 1.500000e+00 0.529 faster 1 1.020953e+05 1.020974e+05 2.148
20 irregular 6 5 505 51 2.500000e+00 0.143 slower 1 1.020982e+05 1.021016e+05 3.355
20 irregular 6 6 506 51 3 0.355 faster 0 1.021026e+05 1.021065e+05 3.908
20 irregular 6 7 507 49 1 0.464 faster 0 1.021076e+05 1.021094e+05 1.715
20 irregular 6 8 508 47 2.500000e+00 0.147 slower 1 1.021102e+05 1.021137e+05 3.469
20 irregular 6 9 509 49 1 0.580 faster 0 1.021149e+05 1.021166e+05 1.715
20 irregular 6 10 510 73 1 0.475 faster 1 1.021177e+05 1.021193e+05 1.610
20 irregular 6 11 511 73 2 0.504 faster 1 1.021205e+05 1.021233e+05 2.796
20 irregular 6 12 512 49 1.500000e+00 0.275 faster 0 1.021251e+05 1.021273e+05 2.264
20 irregular 6 13 513 72 2.500000e+00 0.323 faster 1 1.021305e+05 1.021339e+05 3.347
20 irregular 6 14 514 72 1.500000e+00 0.271 faster 1 1.021354e+05 1.021377e+05 2.302
20 irregular 6 15 515 49 2 0.426 faster 0 1.021388e+05 1.021415e+05 2.735
20 irregular 6 16 516 48 3 0.522 slower 1 1.021427e+05 1.021467e+05 4.023
20 irregular 6 17 517 48 2.500000e+00 0.377 faster 0 1.021487e+05 1.021519e+05 3.285
20 irregular 6 18 518 73 3 0.274 faster 1 1.021533e+05 1.021571e+05 3.756
20 irregular 6 19 519 72 1.500000e+00 0.251 faster 1 1.021580e+05 1.021602e+05 2.245
20 irregular 6 20 520 72 2 0.400 faster 1 1.021614e+05 1.021642e+05 2.773
20 irregular 6 21 521 49 1.500000e+00 0.339 slower 1 1.021656e+05 1.021678e+05 2.154
20 irregular 6 22 522 71 1.500000e+00 0.511 faster 1 1.021689e+05 1.021711e+05 2.244
20 irregular 6 23 523 50 1.500000e+00 0.581 slower 1 1.021724e+05 1.021747e+05 2.346
20 irregular 6 24 524 70 2 0.524 faster 1 1.021794e+05 1.021820e+05 2.644
20 irregular 6 25 525 69 3 0.168 faster 1 1.021834e+05 1.021871e+05 3.745
20 irregular 6 26 526 69 1.500000e+00 0.146 faster 1 1.021895e+05 1.021917e+05 2.171
20 irregular 6 27 527 68 3 0.434 faster 1 1.021937e+05 1.021975e+05 3.759
20 irregular 6 28 528 68 2.500000e+00 0.267 faster 1 1.021988e+05 1.022021e+05 3.310
20 irregular 6 29 529 67 2 0.217 faster 1 1.022030e+05 1.022058e+05 2.775
20 irregular 6 30 530 53 2.500000e+00 0.198 faster 0 1.022087e+05 1.022123e+05 3.558
20 irregular 6 31 531 52 1 0.575 faster 0 1.022183e+05 1.022201e+05 1.803
20 irregular 6 32 532 51 3 0.207 none 2 1.022209e+05 1.022269e+05 5.999
20 irregular 6 33 533 51 1.500000e+00 0.106 faster 0 1.022277e+05 1.022299e+05 2.208
20 irregular 6 34 534 70 3 0.146 slower 0 1.022311e+05 1.022351e+05 3.956
20 irregular 6 35 535 71 1 0.584 faster 1 1.022363e+05 1.022381e+05 1.728
20 irregular 6 36 536 50 3 0.316 slower 1 1.022390e+05 1.022430e+05 3.909
20 irregular 6 37 537 70 2 0.391 faster 1 1.022463e+05 1.022490e+05 2.679
20 irregular 6 38 538 69 2.500000e+00 0.119 faster 1 1.022504e+05 1.022536e+05 3.197
20 irregular 6 39 539 69 2.500000e+00 0.596 slower 0 1.022548e+05 1.022581e+05 3.278
20 irregular 6 40 540 50 2 0.441 faster 0 1.022592e+05 1.022619e+05 2.714
20 irregular 6 41 541 49 1 0.161 faster 0 1.022627e+05 1.022646e+05 1.809
20 irregular 6 42 542 48 2.500000e+00 0.515 slower 1 1.022657e+05 1.022690e+05 3.234
20 irregular 6 43 543 71 3 0.300 faster 1 1.022701e+05 1.022738e+05 3.613
20 irregular 6 44 544 71 1 0.595 faster 1 1.022789e+05 1.022812e+05 2.276
20 irregular 6 45 545 50 2.500000e+00 0.566 faster 0 1.022824e+05 1.022858e+05 3.419
20 irregular 6 46 546 71 2.500000e+00 0.344 faster 1 1.022868e+05 1.022900e+05 3.249
20 irregular 6 47 547 49 2 0.585 slower 1 1.022913e+05 1.022941e+05 2.774
20 irregular 6 48 548 70 2 0.267 faster 1 1.022950e+05 1.022978e+05 2.790
20 irregular 6 49 549 50 1 0.241 slower 1 1.022987e+05 1.023005e+05 1.855
20 irregular 6 50 550 51 2 0.505 faster 0 1.023017e+05 1.023044e+05 2.649
20 irregular 6 51 551 70 1.500000e+00 0.219 faster 1 1.023052e+05 1.023076e+05 2.317
20 irregular 6 52 552 50 1 0.297 faster 0 1.023096e+05 1.023113e+05 1.644
20 irregular 6 53 553 71 1 0.139 faster 1 1.023120e+05 1.023137e+05 1.671
20 irregular 6 54 554 50 2.500000e+00 0.186 slower 1 1.023146e+05 1.023179e+05 3.300
20 irregular 6 55 555 70 2.500000e+00 0.118 faster 1 1.023186e+05 1.023218e+05 3.158
20 irregular 6 56 556 51 1.500000e+00 0.326 faster 0 1.023228e+05 1.023249e+05 2.157
20 irregular 6 57 557 50 2 0.336 slower 1 1.023259e+05 1.023286e+05 2.650
20 irregular 6 58 558 50 1 0.124 faster 0 1.023294e+05 1.023311e+05 1.681
20 irregular 6 59 559 71 1.500000e+00 0.161 faster 1 1.023319e+05 1.023341e+05 2.195
20 irregular 6 60 560 70 2 0.287 faster 1 1.023350e+05 1.023377e+05 2.652
20 irregular 6 61 561 50 2.500000e+00 0.584 faster 0 1.023390e+05 1.023420e+05 3.090
20 irregular 6 62 562 71 1 0.401 faster 1 1.023436e+05 1.023453e+05 1.670
20 irregular 6 63 563 50 2 0.484 faster 0 1.023465e+05 1.023492e+05 2.764
20 irregular 6 64 564 49 3 0.161 slower 1 1.023505e+05 1.023544e+05 3.883
20 irregular 6 65 565 49 3 0.131 faster 0 1.023552e+05 1.023588e+05 3.633
20 irregular 6 66 566 48 2.500000e+00 0.580 slower 1 1.023601e+05 1.023635e+05 3.399
20 irregular 6 67 567 49 3 0.381 faster 0 1.023649e+05 1.023685e+05 3.625
20 irregular 6 68 568 48 1 0.311 slower 1 1.023695e+05 1.023713e+05 1.767
20 irregular 6 69 569 72 2 0.146 faster 1 1.023721e+05 1.023749e+05 2.856
20 irregular 6 70 570 49 1.500000e+00 0.525 slower 1 1.023761e+05 1.023785e+05 2.352
20 irregular 6 71 571 71 1.500000e+00 0.239 faster 1 1.023793e+05 1.023816e+05 2.271
20 irregular 6 72 572 50 1 0.576 faster 0 1.023829e+05 1.023845e+05 1.667
20 irregular 6 73 573 71 1.500000e+00 0.117 faster 1 1.023853e+05 1.023876e+05 2.248
20 irregular 6 74 574 71 2.500000e+00 0.533 faster 1 1.023888e+05 1.023925e+05 3.738
20 irregular 6 75 575 70 1 0.517 faster 1 1.023937e+05 1.023956e+05 1.895
20 irregular 6 76 576 70 2.500000e+00 0.263 faster 1 1.023965e+05 1.023999e+05 3.420
20 irregular 6 77 577 51 3 0.209 slower 1 1.024038e+05 1.024079e+05 4.047
20 irregular 6 78 578 51 2 0.526 faster 0 1.024091e+05 1.024119e+05 2.805
20 irregular 6 79 579 70 1 0.318 faster 1 1.024129e+05 1.024147e+05 1.760
20 irregular 6 80 580 51 1.500000e+00 0.217 faster 0 1.024155e+05 1.024177e+05 2.181
20 irregular 6 81 581 70 2.500000e+00 0.389 faster 1 1.024188e+05 1.024221e+05 3.277
20 irregular 6 82 582 50 1.500000e+00 0.292 slower 1 1.024230e+05 1.024254e+05 2.389
20 irregular 6 83 583 69 3 0.600 faster 1 1.024267e+05 1.024305e+05 3.790
20 irregular 6 84 584 51 2 0.227 slower 1 1.024314e+05 1.024343e+05 2.921
20 irregular 6 85 585 68 3 0.439 faster 1 1.024354e+05 1.024392e+05 3.841
20 irregular 6 86 586 52 1 0.358 faster 0 1.024403e+05 1.024422e+05 1.945
20 irregular 6 87 587 51 3 0.573 slower 1 1.024439e+05 1.024478e+05 3.941
20 irregular 6 88 588 68 2.500000e+00 0.202 slower 0 1.024493e+05 1.024527e+05 3.422
20 irregular 6 89 589 51 2.500000e+00 0.450 faster 0 1.024547e+05 1.024581e+05 3.393
20 irregular 6 90 590 70 2 0.326 faster 1 1.024591e+05 1.024619e+05 2.799
20 irregular 6 91 591 70 1.500000e+00 0.368 slower 0 1.024630e+05 1.024653e+05 2.302
20 irregular 6 92 592 49 2 0.258 faster 0 1.024662e+05 1.024688e+05 2.599
20 irregular 6 93 593 72 1 0.204 faster 1 1.024697e+05 1.024714e+05 1.744
20 irregular 6 94 594 49 1.500000e+00 0.209 slower 1 1.024723e+05 1.024744e+05 2.098
20 irregular 6 95 595 71 3 0.471 slower 0 1.024760e+05 1.024798e+05 3.816
20 irregular 6 96 596 48 2 0.150 none 2 1.024806e+05 1.024856e+05 4.999
20 irregular 6 97 597 72 1 0.262 faster 1 1.024865e+05 1.024902e+05 3.656
20 irregular 6 98 598 71 2 0.321 slower 0 1.024911e+05 1.024942e+05 3.007
20 irregular 6 99 599 72 3 0.271 faster 1 1.024951e+05 1.024990e+05 3.886
20 irregular 6 100 600 48 3 0.442 faster 0 1.025001e+05 1.025041e+05 4.002
20 regular 7 1 601 47 2.500000e+00 0.413 faster 0 1.027247e+05 1.027280e+05 3.306
20 regular 7 2 602 74 2.500000e+00 0.474 faster 1 1.027291e+05 1.027322e+05 3.156
20 regular 7 3 603 73 2.500000e+00 0.553 faster 1 1.027334e+05 1.027366e+05 3.180
20 regular 7 4 604 73 2.500000e+00 0.586 faster 1 1.027378e+05 1.027410e+05 3.190
20 regular 7 5 605 72 2.500000e+00 0.373 faster 1 1.027420e+05 1.027474e+05 5.363
20 regular 7 6 606 48 2.500000e+00 0.384 slower 1 1.027484e+05 1.027520e+05 3.597
20 regular 7 7 607 49 2.500000e+00 0.139 faster 0 1.027528e+05 1.027561e+05 3.322
20 regular 7 8 608 72 2.500000e+00 0.373 faster 1 1.027575e+05 1.027607e+05 3.264
20 regular 7 9 609 48 2.500000e+00 0.568 slower 1 1.027619e+05 1.027653e+05 3.385
20 regular 7 10 610 49 2.500000e+00 0.338 faster 0 1.027663e+05 1.027702e+05 3.939
20 regular 7 11 611 48 2.500000e+00 0.245 slower 1 1.027711e+05 1.027745e+05 3.421
20 regular 7 12 612 48 2.500000e+00 0.143 slower 1 1.027753e+05 1.027787e+05 3.405
20 regular 7 13 613 71 2.500000e+00 0.477 faster 1 1.027799e+05 1.027831e+05 3.193
20 regular 7 14 614 49 2.500000e+00 0.268 slower 1 1.027840e+05 1.027874e+05 3.417
20 regular 7 15 615 50 2.500000e+00 0.436 slower 1 1.027884e+05 1.027918e+05 3.331
20 regular 7 16 616 70 2.500000e+00 0.272 faster 1 1.027927e+05 1.027958e+05 3.179
20 regular 7 17 617 51 2.500000e+00 0.172 slower 1 1.027967e+05 1.027998e+05 3.179
20 regular 7 18 618 51 2.500000e+00 0.251 faster 0 1.028007e+05 1.028040e+05 3.323
20 regular 7 19 619 50 2.500000e+00 0.108 slower 1 1.028048e+05 1.028080e+05 3.185
20 regular 7 20 620 69 2.500000e+00 0.335 faster 1 1.028089e+05 1.028121e+05 3.128
20 regular 7 21 621 69 2.500000e+00 0.296 slower 0 1.028130e+05 1.028162e+05 3.244
20 regular 7 22 622 50 2.500000e+00 0.402 slower 1 1.028173e+05 1.028207e+05 3.373
20 regular 7 23 623 51 2.500000e+00 0.363 faster 0 1.028217e+05 1.028250e+05 3.338
20 regular 7 24 624 70 2.500000e+00 0.302 faster 1 1.028260e+05 1.028291e+05 3.178
20 regular 7 25 625 50 2.500000e+00 0.119 faster 0 1.028299e+05 1.028330e+05 3.123
20 regular 7 26 626 49 2.500000e+00 0.156 slower 1 1.028338e+05 1.028370e+05 3.177
20 regular 7 27 627 50 2.500000e+00 0.292 slower 1 1.028379e+05 1.028411e+05 3.220
20 regular 7 28 628 70 2.500000e+00 0.274 faster 1 1.028421e+05 1.028452e+05 3.105
20 regular 7 29 629 51 2.500000e+00 0.496 faster 0 1.028463e+05 1.028496e+05 3.279
20 regular 7 30 630 50 2.500000e+00 0.321 slower 1 1.028505e+05 1.028537e+05 3.201
20 regular 7 31 631 50 2.500000e+00 0.246 slower 1 1.028546e+05 1.028578e+05 3.129
20 regular 7 32 632 69 2.500000e+00 0.512 slower 0 1.028591e+05 1.028625e+05 3.407
20 regular 7 33 633 50 2.500000e+00 0.448 slower 1 1.028636e+05 1.028666e+05 3.094
20 regular 7 34 634 50 2.500000e+00 0.126 slower 1 1.028674e+05 1.028707e+05 3.287
20 regular 7 35 635 69 2.500000e+00 0.533 faster 1 1.028719e+05 1.028753e+05 3.369
20 regular 7 36 636 51 2.500000e+00 0.466 slower 1 1.028771e+05 1.028804e+05 3.321
20 regular 7 37 637 52 2.500000e+00 0.480 slower 1 1.028816e+05 1.028849e+05 3.371
20 regular 7 38 638 68 2.500000e+00 0.369 slower 0 1.028859e+05 1.028894e+05 3.490
20 regular 7 39 639 69 2.500000e+00 0.426 slower 0 1.028905e+05 1.028938e+05 3.311
20 regular 7 40 640 70 2.500000e+00 0.496 faster 1 1.028949e+05 1.028982e+05 3.242
20 regular 7 41 641 69 2.500000e+00 0.562 faster 1 1.029098e+05 1.029129e+05 3.099
20 regular 7 42 642 51 2.500000e+00 0.553 slower 1 1.029143e+05 1.029175e+05 3.203
20 regular 7 43 643 68 2.500000e+00 0.514 slower 0 1.029186e+05 1.029219e+05 3.304
20 regular 7 44 644 69 2.500000e+00 0.589 faster 1 1.029232e+05 1.029269e+05 3.744
20 regular 7 45 645 51 2.500000e+00 0.447 slower 1 1.029291e+05 1.029323e+05 3.196
20 regular 7 46 646 68 2.500000e+00 0.582 faster 1 1.029339e+05 1.029371e+05 3.167
20 regular 7 47 647 68 2.500000e+00 0.459 slower 0 1.029386e+05 1.029419e+05 3.229
20 regular 7 48 648 69 2.500000e+00 0.501 slower 0 1.029521e+05 1.029553e+05 3.196
20 regular 7 49 649 70 2.500000e+00 0.416 faster 1 1.029579e+05 1.029613e+05 3.406
20 regular 7 50 650 51 2.500000e+00 0.273 slower 1 1.029623e+05 1.029656e+05 3.308
20 regular 7 51 651 51 2.500000e+00 0.346 slower 1 1.029684e+05 1.029716e+05 3.232
20 regular 7 52 652 68 2.500000e+00 0.180 faster 1 1.029827e+05 1.029858e+05 3.075
20 regular 7 53 653 52 2.500000e+00 0.329 slower 1 1.029872e+05 1.029904e+05 3.211
20 regular 7 54 654 67 2.500000e+00 0.187 faster 1 1.029914e+05 1.029948e+05 3.364
20 regular 7 55 655 53 2.500000e+00 0.287 faster 0 1.030249e+05 1.030281e+05 3.203
20 regular 7 56 656 68 2.500000e+00 0.293 faster 1 1.030295e+05 1.030326e+05 3.150
20 regular 7 57 657 67 2.500000e+00 0.406 faster 1 1.030337e+05 1.030369e+05 3.245
20 regular 7 58 658 53 2.500000e+00 0.102 faster 0 1.030388e+05 1.030420e+05 3.257
20 regular 7 59 659 52 2.500000e+00 0.382 slower 1 1.030430e+05 1.030464e+05 3.340
20 regular 7 60 660 67 2.500000e+00 0.276 faster 1 1.030473e+05 1.030508e+05 3.467
20 regular 7 61 661 67 2.500000e+00 0.446 faster 1 1.030532e+05 1.030565e+05 3.312
20 regular 7 62 662 54 2.500000e+00 0.235 faster 0 1.030766e+05 1.030797e+05 3.096
20 regular 7 63 663 53 2.500000e+00 0.238 faster 0 1.030806e+05 1.030837e+05 3.120
20 regular 7 64 664 52 2.500000e+00 0.383 faster 0 1.030848e+05 1.030888e+05 4.055
20 regular 7 65 665 51 2.500000e+00 0.521 slower 1 1.030900e+05 1.030931e+05 3.147
20 regular 7 66 666 69 2.500000e+00 0.487 faster 1 1.030943e+05 1.030975e+05 3.212
20 regular 7 67 667 68 2.500000e+00 0.364 slower 0 1.030985e+05 1.031018e+05 3.338
20 regular 7 68 668 69 2.500000e+00 0.498 faster 1 1.031029e+05 1.031061e+05 3.210
20 regular 7 69 669 69 2.500000e+00 0.521 faster 1 1.031153e+05 1.031187e+05 3.380
20 regular 7 70 670 52 2.500000e+00 0.598 slower 1 1.031199e+05 1.031232e+05 3.304
20 regular 7 71 671 52 2.500000e+00 0.368 faster 0 1.031336e+05 1.031368e+05 3.229
20 regular 7 72 672 69 2.500000e+00 0.418 faster 1 1.031411e+05 1.031443e+05 3.223
20 regular 7 73 673 68 2.500000e+00 0.541 faster 1 1.031700e+05 1.031732e+05 3.209
20 regular 7 74 674 68 2.500000e+00 0.118 slower 0 1.031739e+05 1.031775e+05 3.549
20 regular 7 75 675 69 2.500000e+00 0.438 faster 1 1.031795e+05 1.031826e+05 3.137
20 regular 7 76 676 68 2.500000e+00 0.129 faster 1 1.031842e+05 1.031874e+05 3.110
20 regular 7 77 677 68 2.500000e+00 0.143 slower 0 1.031881e+05 1.031913e+05 3.208
20 regular 7 78 678 51 2.500000e+00 0.177 slower 1 1.031921e+05 1.031954e+05 3.255
20 regular 7 79 679 52 2.500000e+00 0.495 slower 1 1.031965e+05 1.031997e+05 3.172
20 regular 7 80 680 68 2.500000e+00 0.575 slower 0 1.032009e+05 1.032041e+05 3.148
20 regular 7 81 681 69 2.500000e+00 0.349 faster 1 1.032126e+05 1.032157e+05 3.057
20 regular 7 82 682 52 2.500000e+00 0.230 slower 1 1.032177e+05 1.032209e+05 3.191
20 regular 7 83 683 52 2.500000e+00 0.596 slower 1 1.032221e+05 1.032253e+05 3.186
20 regular 7 84 684 53 2.500000e+00 0.102 slower 1 1.032260e+05 1.032292e+05 3.186
20 regular 7 85 685 53 2.500000e+00 0.340 faster 0 1.032302e+05 1.032336e+05 3.417
20 regular 7 86 686 52 2.500000e+00 0.436 slower 1 1.032347e+05 1.032390e+05 4.282
20 regular 7 87 687 67 2.500000e+00 0.296 slower 0 1.032421e+05 1.032454e+05 3.282
20 regular 7 88 688 52 2.500000e+00 0.210 faster 0 1.032512e+05 1.032541e+05 2.928
20 regular 7 89 689 69 2.500000e+00 0.418 slower 0 1.032551e+05 1.032581e+05 2.957
20 regular 7 90 690 70 2.500000e+00 0.430 faster 1 1.032592e+05 1.032623e+05 3.156
20 regular 7 91 691 50 2.500000e+00 0.408 slower 1 1.032634e+05 1.032666e+05 3.227
20 regular 7 92 692 51 2.500000e+00 0.132 slower 1 1.032704e+05 1.032736e+05 3.229
20 regular 7 93 693 69 2.500000e+00 0.496 faster 1 1.032748e+05 1.032781e+05 3.353
20 regular 7 94 694 68 2.500000e+00 0.389 slower 0 1.032791e+05 1.032824e+05 3.313
20 regular 7 95 695 69 2.500000e+00 0.168 faster 1 1.032832e+05 1.032866e+05 3.392
20 regular 7 96 696 69 2.500000e+00 0.597 faster 1 1.032975e+05 1.033007e+05 3.215
20 regular 7 97 697 68 2.500000e+00 0.190 slower 0 1.033032e+05 1.033065e+05 3.324
20 regular 7 98 698 51 2.500000e+00 0.524 faster 0 1.033077e+05 1.033109e+05 3.203
20 regular 7 99 699 70 2.500000e+00 0.485 faster 1 1.033120e+05 1.033152e+05 3.229
20 regular 7 100 700 50 2.500000e+00 0.248 slower 1 1.033161e+05 1.033195e+05 3.374
20 irregular 8 1 701 51 1.500000e+00 0.220 faster 0 1.034217e+05 1.034238e+05 2.149
20 irregular 8 2 702 50 3 0.113 faster 0 1.034246e+05 1.034292e+05 4.647
20 irregular 8 3 703 71 3 0.123 faster 1 1.034300e+05 1.034337e+05 3.726
20 irregular 8 4 704 71 1 0.501 faster 1 1.034365e+05 1.034382e+05 1.652
20 irregular 8 5 705 70 1 0.217 faster 1 1.034398e+05 1.034414e+05 1.640
20 irregular 8 6 706 70 1.500000e+00 0.238 faster 1 1.034423e+05 1.034444e+05 2.105
20 irregular 8 7 707 69 3 0.378 slower 0 1.034455e+05 1.034495e+05 4.026
20 irregular 8 8 708 70 2 0.130 faster 1 1.034503e+05 1.034529e+05 2.598
20 irregular 8 9 709 50 2.500000e+00 0.196 slower 1 1.034538e+05 1.034571e+05 3.325
20 irregular 8 10 710 69 1.500000e+00 0.519 faster 1 1.034657e+05 1.034679e+05 2.171
20 irregular 8 11 711 51 1 0.346 faster 0 1.034689e+05 1.034706e+05 1.626
20 irregular 8 12 712 50 1.500000e+00 0.579 slower 1 1.034722e+05 1.034744e+05 2.183
20 irregular 8 13 713 69 2.500000e+00 0.111 faster 1 1.034752e+05 1.034786e+05 3.454
20 irregular 8 14 714 69 2.500000e+00 0.584 faster 1 1.034798e+05 1.034831e+05 3.273
20 irregular 8 15 715 68 3 0.379 faster 1 1.034855e+05 1.034893e+05 3.791
20 irregular 8 16 716 68 3 0.123 slower 0 1.034901e+05 1.034940e+05 3.868
20 irregular 8 17 717 51 2.500000e+00 0.397 slower 1 1.034950e+05 1.034983e+05 3.248
20 irregular 8 18 718 68 2.500000e+00 0.527 faster 1 1.034999e+05 1.035032e+05 3.290
20 irregular 8 19 719 52 1 0.179 faster 0 1.035040e+05 1.035059e+05 1.836
20 irregular 8 20 720 69 3 0.335 faster 1 1.035069e+05 1.035109e+05 4.063
20 irregular 8 21 721 68 1 0.274 slower 0 1.035119e+05 1.035140e+05 2.100
20 irregular 8 22 722 51 2.500000e+00 0.231 faster 0 1.035149e+05 1.035183e+05 3.458
20 irregular 8 23 723 50 1.500000e+00 0.420 slower 1 1.035194e+05 1.035217e+05 2.244
20 irregular 8 24 724 70 2 0.341 faster 1 1.035227e+05 1.035253e+05 2.659
20 irregular 8 25 725 51 1 0.507 faster 0 1.035269e+05 1.035287e+05 1.866
20 irregular 8 26 726 50 1 0.148 faster 0 1.035295e+05 1.035314e+05 1.866
20 irregular 8 27 727 49 2.500000e+00 0.258 slower 1 1.035323e+05 1.035356e+05 3.256
20 irregular 8 28 728 49 3 0.107 faster 0 1.035364e+05 1.035403e+05 3.979
20 irregular 8 29 729 72 1 0.276 faster 1 1.035446e+05 1.035463e+05 1.667
20 irregular 8 30 730 71 1.500000e+00 0.136 faster 1 1.035474e+05 1.035497e+05 2.219
20 irregular 8 31 731 49 1.500000e+00 0.450 slower 1 1.035508e+05 1.035531e+05 2.306
20 irregular 8 32 732 70 2 0.290 faster 1 1.035540e+05 1.035567e+05 2.724
20 irregular 8 33 733 50 2 0.111 faster 0 1.035575e+05 1.035602e+05 2.741
20 irregular 8 34 734 49 2 0.532 faster 0 1.035614e+05 1.035642e+05 2.856
20 irregular 8 35 735 48 2.500000e+00 0.303 slower 1 1.035652e+05 1.035685e+05 3.248
20 irregular 8 36 736 49 2 0.393 faster 0 1.035695e+05 1.035721e+05 2.559
20 irregular 8 37 737 48 2 0.117 slower 1 1.035735e+05 1.035762e+05 2.766
20 irregular 8 38 738 72 2 0.167 faster 1 1.035770e+05 1.035797e+05 2.612
20 irregular 8 39 739 71 1 0.435 slower 0 1.035808e+05 1.035825e+05 1.764
20 irregular 8 40 740 72 1 0.429 faster 1 1.035836e+05 1.035852e+05 1.610
20 irregular 8 41 741 48 2 0.261 slower 1 1.035866e+05 1.035894e+05 2.887
20 irregular 8 42 742 49 2 0.278 faster 0 1.035916e+05 1.035956e+05 4.043
20 irregular 8 43 743 48 3 0.185 slower 1 1.035971e+05 1.036011e+05 3.989
20 irregular 8 44 744 72 1 0.270 faster 1 1.036020e+05 1.036039e+05 1.878
20 irregular 8 45 745 71 1.500000e+00 0.309 faster 1 1.036049e+05 1.036071e+05 2.211
20 irregular 8 46 746 49 3 0.470 slower 1 1.036082e+05 1.036123e+05 4.101
20 irregular 8 47 747 70 2.500000e+00 0.129 faster 1 1.036131e+05 1.036164e+05 3.282
20 irregular 8 48 748 70 2.500000e+00 0.111 faster 1 1.036172e+05 1.036208e+05 3.636
20 irregular 8 49 749 69 2 0.379 faster 1 1.036218e+05 1.036267e+05 4.845
20 irregular 8 50 750 69 2 0.547 faster 1 1.036279e+05 1.036306e+05 2.682
20 irregular 8 51 751 68 1.500000e+00 0.451 slower 0 1.036317e+05 1.036339e+05 2.265
20 irregular 8 52 752 51 3 0.175 slower 1 1.036348e+05 1.036387e+05 3.879
20 irregular 8 53 753 69 3 0.497 faster 1 1.036398e+05 1.036437e+05 3.841
20 irregular 8 54 754 52 1.500000e+00 0.141 faster 0 1.036449e+05 1.036474e+05 2.451
20 irregular 8 55 755 51 2.500000e+00 0.429 slower 1 1.036485e+05 1.036521e+05 3.563
20 irregular 8 56 756 51 2 0.147 faster 0 1.036537e+05 1.036564e+05 2.764
20 irregular 8 57 757 50 2 0.364 faster 0 1.036580e+05 1.036608e+05 2.852
20 irregular 8 58 758 49 1 0.241 slower 1 1.036617e+05 1.036636e+05 1.838
20 irregular 8 59 759 70 2 0.190 faster 1 1.036644e+05 1.036671e+05 2.678
20 irregular 8 60 760 50 3 0.575 slower 1 1.036691e+05 1.036729e+05 3.801
20 irregular 8 61 761 69 1.500000e+00 0.113 faster 1 1.036736e+05 1.036762e+05 2.521
20 irregular 8 62 762 51 2 0.204 slower 1 1.036782e+05 1.036810e+05 2.724
20 irregular 8 63 763 68 2 0.286 faster 1 1.036819e+05 1.036846e+05 2.686
20 irregular 8 64 764 68 2 0.210 faster 1 1.036859e+05 1.036885e+05 2.648
20 irregular 8 65 765 53 2.500000e+00 0.495 faster 0 1.036897e+05 1.036928e+05 3.162
20 irregular 8 66 766 68 2 0.228 faster 1 1.036937e+05 1.036963e+05 2.602
20 irregular 8 67 767 68 1 0.512 slower 0 1.036975e+05 1.036993e+05 1.747
20 irregular 8 68 768 51 1.500000e+00 0.260 faster 0 1.037006e+05 1.037026e+05 2.063
20 irregular 8 69 769 50 2.500000e+00 0.393 faster 0 1.037037e+05 1.037069e+05 3.228
20 irregular 8 70 770 71 1.500000e+00 0.547 faster 1 1.037082e+05 1.037105e+05 2.294
20 irregular 8 71 771 70 2.500000e+00 0.504 faster 1 1.037116e+05 1.037151e+05 3.483
20 irregular 8 72 772 70 1.500000e+00 0.389 faster 1 1.037162e+05 1.037183e+05 2.161
20 irregular 8 73 773 51 2.500000e+00 0.500 slower 1 1.037195e+05 1.037228e+05 3.344
20 irregular 8 74 774 51 3 0.463 faster 0 1.037243e+05 1.037280e+05 3.711
20 irregular 8 75 775 70 2.500000e+00 0.581 slower 0 1.037293e+05 1.037325e+05 3.249
20 irregular 8 76 776 49 3 0.593 faster 0 1.037338e+05 1.037375e+05 3.667
20 irregular 8 77 777 72 2.500000e+00 0.318 faster 1 1.037389e+05 1.037421e+05 3.193
20 irregular 8 78 778 71 1 0.233 faster 1 1.037449e+05 1.037467e+05 1.716
20 irregular 8 79 779 71 3 0.324 faster 1 1.037477e+05 1.037513e+05 3.673
20 irregular 8 80 780 70 1.500000e+00 0.545 faster 1 1.037531e+05 1.037552e+05 2.093
20 irregular 8 81 781 50 3 0.228 slower 1 1.037561e+05 1.037597e+05 3.647
20 irregular 8 82 782 51 1 0.211 faster 0 1.037606e+05 1.037625e+05 1.906
20 irregular 8 83 783 50 1.500000e+00 0.279 none 2 1.037635e+05 1.037680e+05 4.500
20 irregular 8 84 784 70 3 0.142 faster 1 1.037688e+05 1.037735e+05 4.682
20 irregular 8 85 785 50 1 0.528 faster 0 1.037751e+05 1.037767e+05 1.608
20 irregular 8 86 786 71 1 0.413 slower 0 1.037778e+05 1.037795e+05 1.778
20 irregular 8 87 787 48 1 0.517 slower 1 1.037807e+05 1.037824e+05 1.673
20 irregular 8 88 788 71 3 0.404 slower 0 1.037838e+05 1.037889e+05 5.145
20 irregular 8 89 789 72 3 0.325 faster 1 1.037915e+05 1.037954e+05 3.867
20 irregular 8 90 790 48 1.500000e+00 0.346 slower 1 1.037968e+05 1.037993e+05 2.469
20 irregular 8 91 791 49 1 0.397 faster 0 1.038004e+05 1.038028e+05 2.432
20 irregular 8 92 792 48 1.500000e+00 0.344 faster 0 1.038038e+05 1.038062e+05 2.350
20 irregular 8 93 793 73 1.500000e+00 0.138 faster 1 1.038069e+05 1.038091e+05 2.208
20 irregular 8 94 794 47 1.500000e+00 0.449 faster 0 1.038102e+05 1.038141e+05 3.871
20 irregular 8 95 795 46 2.500000e+00 0.111 slower 1 1.038149e+05 1.038192e+05 4.325
20 irregular 8 96 796 73 2.500000e+00 0.288 faster 1 1.038208e+05 1.038247e+05 3.898
20 irregular 8 97 797 47 3 0.325 slower 1 1.038257e+05 1.038296e+05 3.925
20 irregular 8 98 798 48 2 0.584 faster 0 1.038312e+05 1.038340e+05 2.799
20 irregular 8 99 799 47 1 0.354 slower 1 1.038351e+05 1.038369e+05 1.811
20 irregular 8 100 800 73 2.500000e+00 0.192 faster 1 1.038377e+05 1.038411e+05 3.380
20 regular 9 1 801 48 1.500000e+00 0.481 faster 0 1.041455e+05 1.041478e+05 2.256
20 regular 9 2 802 47 1.500000e+00 0.425 faster 0 1.041488e+05 1.041510e+05 2.217
20 regular 9 3 803 74 1.500000e+00 0.204 faster 1 1.041519e+05 1.041541e+05 2.196
20 regular 9 4 804 46 1.500000e+00 0.123 faster 0 1.041549e+05 1.041571e+05 2.255
20 regular 9 5 805 45 1.500000e+00 0.218 slower 1 1.041586e+05 1.041609e+05 2.314
20 regular 9 6 806 46 1.500000e+00 0.545 slower 1 1.041627e+05 1.041649e+05 2.231
20 regular 9 7 807 74 1.500000e+00 0.389 faster 1 1.041660e+05 1.041681e+05 2.152
20 regular 9 8 808 47 1.500000e+00 0.312 faster 0 1.041694e+05 1.041717e+05 2.271
20 regular 9 9 809 46 1.500000e+00 0.493 faster 0 1.041728e+05 1.041750e+05 2.205
20 regular 9 10 810 45 1.500000e+00 0.266 slower 1 1.041765e+05 1.041786e+05 2.125
20 regular 9 11 811 45 1.500000e+00 0.136 faster 0 1.041794e+05 1.041817e+05 2.247
20 regular 9 12 812 76 1.500000e+00 0.582 faster 1 1.041829e+05 1.041851e+05 2.224
20 regular 9 13 813 45 1.500000e+00 0.236 faster 0 1.041860e+05 1.041882e+05 2.242
20 regular 9 14 814 76 1.500000e+00 0.364 faster 1 1.041898e+05 1.041919e+05 2.161
20 regular 9 15 815 44 1.500000e+00 0.142 faster 0 1.041927e+05 1.041949e+05 2.134
20 regular 9 16 816 77 1.500000e+00 0.288 faster 1 1.041963e+05 1.041986e+05 2.218
20 regular 9 17 817 76 1.500000e+00 0.239 faster 1 1.041994e+05 1.042017e+05 2.314
20 regular 9 18 818 44 1.500000e+00 0.244 slower 1 1.042026e+05 1.042049e+05 2.293
20 regular 9 19 819 45 1.500000e+00 0.251 slower 1 1.042063e+05 1.042086e+05 2.314
20 regular 9 20 820 75 1.500000e+00 0.105 faster 1 1.042094e+05 1.042116e+05 2.246
20 regular 9 21 821 74 1.500000e+00 0.396 faster 1 1.042127e+05 1.042150e+05 2.356
20 regular 9 22 822 74 1.500000e+00 0.486 faster 1 1.042161e+05 1.042184e+05 2.259
20 regular 9 23 823 73 1.500000e+00 0.290 faster 1 1.042193e+05 1.042217e+05 2.381
20 regular 9 24 824 73 1.500000e+00 0.201 faster 1 1.042225e+05 1.042247e+05 2.152
20 regular 9 25 825 48 1.500000e+00 0.327 slower 1 1.042257e+05 1.042279e+05 2.276
20 regular 9 26 826 72 1.500000e+00 0.314 faster 1 1.042289e+05 1.042310e+05 2.128
20 regular 9 27 827 71 1.500000e+00 0.367 faster 1 1.042320e+05 1.042342e+05 2.203
20 regular 9 28 828 71 1.500000e+00 0.314 faster 1 1.042352e+05 1.042374e+05 2.180
20 regular 9 29 829 50 1.500000e+00 0.113 slower 1 1.042388e+05 1.042411e+05 2.341
20 regular 9 30 830 70 1.500000e+00 0.155 faster 1 1.042419e+05 1.042442e+05 2.286
20 regular 9 31 831 51 1.500000e+00 0.226 faster 0 1.042466e+05 1.042486e+05 2.075
20 regular 9 32 832 70 1.500000e+00 0.113 faster 1 1.042500e+05 1.042523e+05 2.338
20 regular 9 33 833 70 1.500000e+00 0.150 faster 1 1.042537e+05 1.042559e+05 2.273
20 regular 9 34 834 51 1.500000e+00 0.257 slower 1 1.042568e+05 1.042592e+05 2.394
20 regular 9 35 835 69 1.500000e+00 0.580 faster 1 1.042612e+05 1.042634e+05 2.276
20 regular 9 36 836 68 1.500000e+00 0.368 faster 1 1.042644e+05 1.042668e+05 2.345
20 regular 9 37 837 68 1.500000e+00 0.401 slower 0 1.042678e+05 1.042706e+05 2.787
20 regular 9 38 838 51 1.500000e+00 0.425 slower 1 1.042717e+05 1.042740e+05 2.370
20 regular 9 39 839 52 1.500000e+00 0.340 slower 1 1.042750e+05 1.042773e+05 2.309
20 regular 9 40 840 68 1.500000e+00 0.532 faster 1 1.042785e+05 1.042808e+05 2.253
20 regular 9 41 841 67 1.500000e+00 0.420 slower 0 1.042818e+05 1.042840e+05 2.197
20 regular 9 42 842 68 1.500000e+00 0.599 slower 0 1.042852e+05 1.042875e+05 2.239
20 regular 9 43 843 69 1.500000e+00 0.499 faster 1 1.042886e+05 1.042908e+05 2.204
20 regular 9 44 844 69 1.500000e+00 0.595 slower 0 1.042924e+05 1.042948e+05 2.373
20 regular 9 45 845 70 1.500000e+00 0.234 slower 0 1.042963e+05 1.042986e+05 2.240
20 regular 9 46 846 49 1.500000e+00 0.166 faster 0 1.042993e+05 1.043015e+05 2.129
20 regular 9 47 847 48 1.500000e+00 0.460 slower 1 1.043026e+05 1.043047e+05 2.135
20 regular 9 48 848 71 1.500000e+00 0.253 faster 1 1.043056e+05 1.043078e+05 2.150
20 regular 9 49 849 71 1.500000e+00 0.387 faster 1 1.043093e+05 1.043115e+05 2.158
20 regular 9 50 850 50 1.500000e+00 0.182 slower 1 1.043123e+05 1.043146e+05 2.289
20 regular 9 51 851 70 1.500000e+00 0.226 faster 1 1.043154e+05 1.043177e+05 2.280
20 regular 9 52 852 51 1.500000e+00 0.266 slower 1 1.043186e+05 1.043213e+05 2.619
20 regular 9 53 853 69 1.500000e+00 0.338 faster 1 1.043222e+05 1.043243e+05 2.108
20 regular 9 54 854 52 1.500000e+00 0.430 slower 1 1.043275e+05 1.043298e+05 2.299
20 regular 9 55 855 68 1.500000e+00 0.308 faster 1 1.043308e+05 1.043329e+05 2.138
20 regular 9 56 856 53 1.500000e+00 0.271 slower 1 1.043338e+05 1.043360e+05 2.214
20 regular 9 57 857 67 1.500000e+00 0.226 faster 1 1.043369e+05 1.043392e+05 2.261
20 regular 9 58 858 54 1.500000e+00 0.102 faster 0 1.043399e+05 1.043421e+05 2.198
20 regular 9 59 859 67 1.500000e+00 0.275 slower 0 1.043430e+05 1.043452e+05 2.209
20 regular 9 60 860 52 1.500000e+00 0.389 slower 1 1.043462e+05 1.043487e+05 2.469
20 regular 9 61 861 52 1.500000e+00 0.434 slower 1 1.043509e+05 1.043531e+05 2.240
20 regular 9 62 862 53 1.500000e+00 0.588 slower 1 1.043544e+05 1.043566e+05 2.245
20 regular 9 63 863 67 1.500000e+00 0.265 faster 1 1.043575e+05 1.043597e+05 2.142
20 regular 9 64 864 54 1.500000e+00 0.571 faster 0 1.043609e+05 1.043633e+05 2.387
20 regular 9 65 865 53 1.500000e+00 0.141 slower 1 1.043640e+05 1.043662e+05 2.137
20 regular 9 66 866 67 1.500000e+00 0.396 faster 1 1.043672e+05 1.043694e+05 2.223
20 regular 9 67 867 66 1.500000e+00 0.214 faster 1 1.043703e+05 1.043725e+05 2.172
20 regular 9 68 868 54 1.500000e+00 0.585 slower 1 1.043737e+05 1.043763e+05 2.647
20 regular 9 69 869 65 1.500000e+00 0.396 faster 1 1.043774e+05 1.043796e+05 2.220
20 regular 9 70 870 55 1.500000e+00 0.358 slower 1 1.043806e+05 1.043830e+05 2.366
20 regular 9 71 871 56 1.500000e+00 0.591 faster 0 1.043842e+05 1.043865e+05 2.350
20 regular 9 72 872 55 1.500000e+00 0.248 faster 0 1.043874e+05 1.043898e+05 2.349
20 regular 9 73 873 54 1.500000e+00 0.216 faster 0 1.043906e+05 1.043929e+05 2.257
20 regular 9 74 874 53 1.500000e+00 0.247 faster 0 1.043938e+05 1.043963e+05 2.566
20 regular 9 75 875 68 1.500000e+00 0.156 slower 0 1.043971e+05 1.043993e+05 2.179
20 regular 9 76 876 51 1.500000e+00 0.366 slower 1 1.044003e+05 1.044026e+05 2.234
20 regular 9 77 877 51 1.500000e+00 0.165 faster 0 1.044034e+05 1.044059e+05 2.556
20 regular 9 78 878 70 1.500000e+00 0.596 faster 1 1.044071e+05 1.044095e+05 2.330
20 regular 9 79 879 69 1.500000e+00 0.428 faster 1 1.044110e+05 1.044132e+05 2.216
20 regular 9 80 880 69 1.500000e+00 0.538 slower 0 1.044144e+05 1.044168e+05 2.432
20 regular 9 81 881 50 1.500000e+00 0.195 faster 0 1.044176e+05 1.044198e+05 2.188
20 regular 9 82 882 49 1.500000e+00 0.401 slower 1 1.044213e+05 1.044235e+05 2.181
20 regular 9 83 883 70 1.500000e+00 0.106 faster 1 1.044243e+05 1.044263e+05 2.026
20 regular 9 84 884 70 1.500000e+00 0.518 faster 1 1.044274e+05 1.044297e+05 2.292
20 regular 9 85 885 51 1.500000e+00 0.498 slower 1 1.044309e+05 1.044331e+05 2.251
20 regular 9 86 886 51 1.500000e+00 0.123 faster 0 1.044339e+05 1.044361e+05 2.181
20 regular 9 87 887 50 1.500000e+00 0.414 faster 0 1.044379e+05 1.044400e+05 2.142
20 regular 9 88 888 71 1.500000e+00 0.400 faster 1 1.044411e+05 1.044433e+05 2.202
20 regular 9 89 889 70 1.500000e+00 0.402 faster 1 1.044447e+05 1.044469e+05 2.227
20 regular 9 90 890 50 1.500000e+00 0.257 slower 1 1.044478e+05 1.044501e+05 2.279
20 regular 9 91 891 51 1.500000e+00 0.133 slower 1 1.044513e+05 1.044534e+05 2.097
20 regular 9 92 892 51 1.500000e+00 0.586 faster 0 1.044547e+05 1.044574e+05 2.702
20 regular 9 93 893 70 1.500000e+00 0.279 faster 1 1.044583e+05 1.044606e+05 2.334
20 regular 9 94 894 69 1.500000e+00 0.504 slower 0 1.044618e+05 1.044642e+05 2.399
20 regular 9 95 895 50 1.500000e+00 0.568 slower 1 1.044654e+05 1.044679e+05 2.564
20 regular 9 96 896 70 1.500000e+00 0.284 faster 1 1.044689e+05 1.044711e+05 2.273
20 regular 9 97 897 51 1.500000e+00 0.208 slower 1 1.044727e+05 1.044749e+05 2.241
20 regular 9 98 898 69 1.500000e+00 0.488 faster 1 1.044760e+05 1.044781e+05 2.085
20 regular 9 99 899 52 1.500000e+00 0.260 slower 1 1.044790e+05 1.044811e+05 2.126
20 regular 9 100 900 68 1.500000e+00 0.598 slower 0 1.044829e+05 1.044851e+05 2.148
20 irregular 10 1 901 69 2 0.448 faster 1 1.045279e+05 1.045307e+05 2.786
20 irregular 10 2 902 52 2 0.267 faster 0 1.045321e+05 1.045347e+05 2.583
20 irregular 10 3 903 69 3 0.536 faster 1 1.045364e+05 1.045402e+05 3.754
20 irregular 10 4 904 69 1.500000e+00 0.308 faster 1 1.045411e+05 1.045434e+05 2.231
20 irregular 10 5 905 52 1 0.489 faster 0 1.045445e+05 1.045465e+05 1.950
20 irregular 10 6 906 51 1.500000e+00 0.462 slower 1 1.045476e+05 1.045498e+05 2.251
20 irregular 10 7 907 51 2.500000e+00 0.365 slower 1 1.045509e+05 1.045542e+05 3.327
20 irregular 10 8 908 52 3 0.242 faster 0 1.045551e+05 1.045590e+05 3.900
20 irregular 10 9 909 69 2.500000e+00 0.164 faster 1 1.045662e+05 1.045695e+05 3.286
20 irregular 10 10 910 69 1.500000e+00 0.560 faster 1 1.045707e+05 1.045728e+05 2.150
20 irregular 10 11 911 68 1 0.309 faster 1 1.045738e+05 1.045756e+05 1.830
20 irregular 10 12 912 68 1 0.505 slower 0 1.045773e+05 1.045790e+05 1.636
20 irregular 10 13 913 69 1 0.558 faster 1 1.045814e+05 1.045834e+05 2.024
20 irregular 10 14 914 68 2.500000e+00 0.263 faster 1 1.045934e+05 1.045966e+05 3.198
20 irregular 10 15 915 68 1.500000e+00 0.156 faster 1 1.046018e+05 1.046041e+05 2.257
20 irregular 10 16 916 67 2 0.463 slower 0 1.046056e+05 1.046085e+05 2.812
20 irregular 10 17 917 68 2 0.143 faster 1 1.046092e+05 1.046118e+05 2.575
20 irregular 10 18 918 52 1 0.391 faster 0 1.046133e+05 1.046150e+05 1.695
20 irregular 10 19 919 69 1.500000e+00 0.473 faster 1 1.046161e+05 1.046183e+05 2.195
20 irregular 10 20 920 68 2.500000e+00 0.468 faster 1 1.046259e+05 1.046290e+05 3.170
20 irregular 10 21 921 52 2 0.554 faster 0 1.046303e+05 1.046329e+05 2.666
20 irregular 10 22 922 69 1 0.165 faster 1 1.046339e+05 1.046357e+05 1.723
20 irregular 10 23 923 68 2 0.231 slower 0 1.046367e+05 1.046399e+05 3.210
20 irregular 10 24 924 69 2.500000e+00 0.317 faster 1 1.046409e+05 1.046443e+05 3.438
20 irregular 10 25 925 51 1 0.523 faster 0 1.046621e+05 1.046639e+05 1.766
20 irregular 10 26 926 70 1 0.261 faster 1 1.046648e+05 1.046669e+05 2.151
20 irregular 10 27 927 69 1 0.493 faster 1 1.046681e+05 1.046702e+05 2.096
20 irregular 10 28 928 51 3 0.571 slower 1 1.046714e+05 1.046753e+05 3.877
20 irregular 10 29 929 68 2 0.505 faster 1 1.046770e+05 1.046798e+05 2.778
20 irregular 10 30 930 68 2.500000e+00 0.528 faster 1 1.047289e+05 1.047322e+05 3.261
20 irregular 10 31 931 53 1 0.478 slower 1 1.047343e+05 1.047361e+05 1.732
20 irregular 10 32 932 53 2 0.337 faster 0 1.047383e+05 1.047410e+05 2.731
20 irregular 10 33 933 52 2 0.457 faster 0 1.047429e+05 1.047457e+05 2.861
20 irregular 10 34 934 69 3 0.477 faster 1 1.047480e+05 1.047518e+05 3.848
20 irregular 10 35 935 68 2.500000e+00 0.405 slower 0 1.047533e+05 1.047567e+05 3.468
20 irregular 10 36 936 51 3 0.164 slower 1 1.047576e+05 1.047615e+05 3.965
20 irregular 10 37 937 51 1 0.280 faster 0 1.047640e+05 1.047656e+05 1.633
20 irregular 10 38 938 70 3 0.252 faster 1 1.047666e+05 1.047704e+05 3.795
20 irregular 10 39 939 51 2.500000e+00 0.541 slower 1 1.047760e+05 1.047795e+05 3.475
20 irregular 10 40 940 51 2 0.237 slower 1 1.047804e+05 1.047831e+05 2.757
20 irregular 10 41 941 52 3 0.198 faster 0 1.047840e+05 1.047881e+05 4.070
20 irregular 10 42 942 69 2.500000e+00 0.385 faster 1 1.047913e+05 1.047946e+05 3.266
20 irregular 10 43 943 51 3 0.558 faster 0 1.047958e+05 1.047996e+05 3.729
20 irregular 10 44 944 50 1 0.473 faster 0 1.048007e+05 1.048026e+05 1.850
20 irregular 10 45 945 71 3 0.316 faster 1 1.048090e+05 1.048127e+05 3.673
20 irregular 10 46 946 50 1.500000e+00 0.245 faster 0 1.048154e+05 1.048178e+05 2.374
20 irregular 10 47 947 49 2.500000e+00 0.323 faster 0 1.048219e+05 1.048253e+05 3.422
20 irregular 10 48 948 48 2 0.403 faster 0 1.048275e+05 1.048304e+05 2.834
20 irregular 10 49 949 47 2 0.276 faster 0 1.048316e+05 1.048343e+05 2.777
20 irregular 10 50 950 74 1.500000e+00 0.438 faster 1 1.048363e+05 1.048384e+05 2.146
20 irregular 10 51 951 74 2 0.201 faster 1 1.048393e+05 1.048420e+05 2.735
20 irregular 10 52 952 47 1.500000e+00 0.152 slower 1 1.048428e+05 1.048450e+05 2.185
20 irregular 10 53 953 47 1.500000e+00 0.187 faster 0 1.048459e+05 1.048481e+05 2.214
20 irregular 10 54 954 46 1.500000e+00 0.422 faster 0 1.048536e+05 1.048558e+05 2.144
20 irregular 10 55 955 75 2.500000e+00 0.545 faster 1 1.048570e+05 1.048602e+05 3.226
20 irregular 10 56 956 46 3 0.322 faster 0 1.048612e+05 1.048650e+05 3.855
20 irregular 10 57 957 45 1.500000e+00 0.579 slower 1 1.048663e+05 1.048686e+05 2.309
20 irregular 10 58 958 75 2 0.327 faster 1 1.048696e+05 1.048723e+05 2.707
20 irregular 10 59 959 46 2.500000e+00 0.411 faster 0 1.048734e+05 1.048768e+05 3.454
20 irregular 10 60 960 75 1 0.291 faster 1 1.048778e+05 1.048794e+05 1.648
20 irregular 10 61 961 75 1.500000e+00 0.389 faster 1 1.048805e+05 1.048829e+05 2.429
20 irregular 10 62 962 46 1 0.300 faster 0 1.048844e+05 1.048865e+05 2.032
20 irregular 10 63 963 75 1 0.170 faster 1 1.048873e+05 1.048890e+05 1.718
20 irregular 10 64 964 75 2 0.457 slower 0 1.048909e+05 1.048941e+05 3.186
20 irregular 10 65 965 76 3 0.514 faster 1 1.048963e+05 1.049000e+05 3.644
20 irregular 10 66 966 45 2.500000e+00 0.498 slower 1 1.049012e+05 1.049044e+05 3.205
20 irregular 10 67 967 45 3 0.218 slower 1 1.049055e+05 1.049092e+05 3.703
20 irregular 10 68 968 46 1.500000e+00 0.424 slower 1 1.049106e+05 1.049128e+05 2.270
20 irregular 10 69 969 46 1.500000e+00 0.114 slower 1 1.049170e+05 1.049193e+05 2.310
20 irregular 10 70 970 73 1 0.346 faster 1 1.049204e+05 1.049222e+05 1.812
20 irregular 10 71 971 73 3 0.180 faster 1 1.049280e+05 1.049318e+05 3.732
20 irregular 10 72 972 72 1.500000e+00 0.331 faster 1 1.049338e+05 1.049360e+05 2.171
20 irregular 10 73 973 48 3 0.408 faster 0 1.049382e+05 1.049413e+05 3.146
20 irregular 10 74 974 73 2.500000e+00 0.220 faster 1 1.049422e+05 1.049456e+05 3.397
20 irregular 10 75 975 72 2 0.171 slower 0 1.049471e+05 1.049501e+05 2.947
20 irregular 10 76 976 47 2.500000e+00 0.120 faster 0 1.049508e+05 1.049542e+05 3.349
20 irregular 10 77 977 74 2 0.516 faster 1 1.049554e+05 1.049581e+05 2.766
20 irregular 10 78 978 74 3 0.239 faster 1 1.049623e+05 1.049661e+05 3.800
20 irregular 10 79 979 47 3 0.176 none 2 1.049676e+05 1.049736e+05 6.000
20 irregular 10 80 980 47 1 0.350 faster 0 1.049747e+05 1.049764e+05 1.778
20 irregular 10 81 981 46 1 0.392 slower 1 1.049775e+05 1.049797e+05 2.186
20 irregular 10 82 982 74 3 0.143 faster 1 1.049817e+05 1.049855e+05 3.716
20 irregular 10 83 983 47 1.500000e+00 0.588 slower 1 1.049872e+05 1.049893e+05 2.181
20 irregular 10 84 984 47 3 0.406 slower 1 1.049910e+05 1.049947e+05 3.753
20 irregular 10 85 985 48 2.500000e+00 0.571 slower 1 1.049960e+05 1.049993e+05 3.281
20 irregular 10 86 986 48 2.500000e+00 0.226 slower 1 1.050004e+05 1.050036e+05 3.161
20 irregular 10 87 987 49 2 0.430 slower 1 1.050051e+05 1.050078e+05 2.677
20 irregular 10 88 988 71 3 0.305 faster 1 1.050106e+05 1.050143e+05 3.694
20 irregular 10 89 989 70 2.500000e+00 0.253 faster 1 1.050163e+05 1.050198e+05 3.430
20 irregular 10 90 990 70 1.500000e+00 0.305 faster 1 1.050216e+05 1.050239e+05 2.293
20 irregular 10 91 991 51 1.500000e+00 0.327 slower 1 1.050253e+05 1.050274e+05 2.088
20 irregular 10 92 992 51 2 0.354 faster 0 1.050288e+05 1.050317e+05 2.893
20 irregular 10 93 993 50 1 0.344 slower 1 1.050331e+05 1.050348e+05 1.744
20 irregular 10 94 994 69 1.500000e+00 0.147 faster 1 1.050356e+05 1.050381e+05 2.447
20 irregular 10 95 995 69 3 0.416 faster 1 1.050392e+05 1.050431e+05 3.893
20 irregular 10 96 996 52 2.500000e+00 0.265 slower 1 1.050444e+05 1.050478e+05 3.361
20 irregular 10 97 997 68 1.500000e+00 0.177 faster 1 1.050490e+05 1.050513e+05 2.359
20 irregular 10 98 998 67 1 0.196 faster 1 1.050522e+05 1.050544e+05 2.193
20 irregular 10 99 999 53 2.500000e+00 0.488 slower 1 1.050556e+05 1.050589e+05 3.272
20 irregular 10 100 1000 54 2 0.367 slower 1 1.050602e+05 1.050629e+05 2.670
