subNo condition blockNo trialNo trialID currentFrequency cueTargetInterval randomPreCueInterval response responseAccuracy startTime responseTime RT
10 regular 1 1 1 73 2.500000e+00 0.281 faster 1 2.327815e+06 2.327819e+06 3.320
10 regular 1 2 2 47 2.500000e+00 0.170 faster 0 2.327820e+06 2.327824e+06 4.026
10 regular 1 3 3 75 2.500000e+00 0.455 faster 1 2.327825e+06 2.327829e+06 3.349
10 regular 1 4 4 73 2.500000e+00 0.441 faster 1 2.327830e+06 2.327834e+06 3.913
10 regular 1 5 5 73 2.500000e+00 0.228 faster 1 2.327835e+06 2.327839e+06 4.038
10 regular 1 6 6 49 2.500000e+00 0.275 faster 0 2.327840e+06 2.327844e+06 3.341
10 regular 1 7 7 73 2.500000e+00 0.433 faster 1 2.327845e+06 2.327848e+06 3.262
10 regular 1 8 8 73 2.500000e+00 0.159 faster 1 2.327849e+06 2.327852e+06 3.114
10 regular 1 9 9 71 2.500000e+00 0.290 faster 1 2.327854e+06 2.327857e+06 3.194
10 regular 1 10 10 49 2.500000e+00 0.578 faster 0 2.327859e+06 2.327862e+06 3.074
10 regular 1 11 11 72 2.500000e+00 0.404 faster 1 2.327863e+06 2.327867e+06 3.472
10 regular 1 12 12 71 2.500000e+00 0.244 faster 1 2.327868e+06 2.327871e+06 3.536
10 regular 1 13 13 49 2.500000e+00 0.442 slower 1 2.327872e+06 2.327876e+06 3.413
10 regular 1 14 14 70 2.500000e+00 0.459 faster 1 2.327878e+06 2.327881e+06 3.022
10 regular 1 15 15 50 2.500000e+00 0.406 faster 0 2.327882e+06 2.327886e+06 3.357
10 regular 1 16 16 49 2.500000e+00 0.428 faster 0 2.327887e+06 2.327891e+06 3.206
10 regular 1 17 17 72 2.500000e+00 0.542 faster 1 2.327892e+06 2.327895e+06 3.102
10 regular 1 18 18 71 2.500000e+00 0.577 faster 1 2.327896e+06 2.327900e+06 3.337
10 regular 1 19 19 49 2.500000e+00 0.461 faster 0 2.327901e+06 2.327904e+06 3.630
10 regular 1 20 20 72 2.500000e+00 0.216 faster 1 2.327905e+06 2.327909e+06 3.181
10 regular 1 21 21 71 2.500000e+00 0.363 faster 1 2.327910e+06 2.327914e+06 3.411
10 regular 1 22 22 49 2.500000e+00 0.148 faster 0 2.327915e+06 2.327919e+06 3.859
10 regular 1 23 23 72 2.500000e+00 0.293 faster 1 2.327920e+06 2.327923e+06 3.676
10 regular 1 24 24 49 2.500000e+00 0.325 faster 0 2.327925e+06 2.327928e+06 3.248
10 regular 1 25 25 48 2.500000e+00 0.199 slower 1 2.327930e+06 2.327933e+06 3.100
10 regular 1 26 26 72 2.500000e+00 0.324 faster 1 2.327934e+06 2.327938e+06 3.243
10 regular 1 27 27 49 2.500000e+00 0.256 slower 1 2.327939e+06 2.327942e+06 3.145
10 regular 1 28 28 71 2.500000e+00 0.328 faster 1 2.327943e+06 2.327947e+06 3.524
10 regular 1 29 29 70 2.500000e+00 0.167 faster 1 2.327948e+06 2.327952e+06 3.457
10 regular 1 30 30 70 2.500000e+00 0.537 faster 1 2.327953e+06 2.327957e+06 3.386
10 regular 1 31 31 51 2.500000e+00 0.268 faster 0 2.327957e+06 2.327961e+06 3.673
10 regular 1 32 32 70 2.500000e+00 0.299 faster 1 2.327963e+06 2.327966e+06 3.318
10 regular 1 33 33 50 2.500000e+00 0.134 faster 0 2.327967e+06 2.327971e+06 3.184
10 regular 1 34 34 71 2.500000e+00 0.207 faster 1 2.327972e+06 2.327975e+06 3.163
10 regular 1 35 35 50 2.500000e+00 0.231 slower 1 2.327976e+06 2.327980e+06 3.527
10 regular 1 36 36 50 2.500000e+00 0.279 faster 0 2.327981e+06 2.327985e+06 3.514
10 regular 1 37 37 49 2.500000e+00 0.541 faster 0 2.327987e+06 2.327990e+06 3.043
10 regular 1 38 38 48 2.500000e+00 0.372 slower 1 2.327992e+06 2.327995e+06 3.407
10 regular 1 39 39 71 2.500000e+00 0.585 faster 1 2.327997e+06 2.328000e+06 3.277
10 regular 1 40 40 49 2.500000e+00 0.441 faster 0 2.328002e+06 2.328005e+06 3.138
10 regular 1 41 41 48 2.500000e+00 0.184 slower 1 2.328007e+06 2.328011e+06 3.736
10 regular 1 42 42 71 2.500000e+00 0.438 faster 1 2.328013e+06 2.328016e+06 3.169
10 regular 1 43 43 71 2.500000e+00 0.234 faster 1 2.328017e+06 2.328020e+06 3.249
10 regular 1 44 44 70 2.500000e+00 0.208 faster 1 2.328021e+06 2.328025e+06 3.333
10 regular 1 45 45 50 2.500000e+00 0.467 faster 0 2.328026e+06 2.328029e+06 3.335
10 regular 1 46 46 71 2.500000e+00 0.386 faster 1 2.328030e+06 2.328034e+06 3.219
10 regular 1 47 47 70 2.500000e+00 0.566 faster 1 2.328035e+06 2.328039e+06 3.340
10 regular 1 48 48 50 2.500000e+00 0.141 slower 1 2.328040e+06 2.328044e+06 3.722
10 regular 1 49 49 51 2.500000e+00 0.507 slower 1 2.328046e+06 2.328049e+06 3.437
10 regular 1 50 50 51 2.500000e+00 0.578 slower 1 2.328051e+06 2.328054e+06 3.428
10 regular 1 51 51 68 2.500000e+00 0.547 slower 0 2.328056e+06 2.328059e+06 3.106
10 regular 1 52 52 51 2.500000e+00 0.447 faster 0 2.328062e+06 2.328066e+06 4.315
10 regular 1 53 53 70 2.500000e+00 0.452 slower 0 2.328068e+06 2.328072e+06 3.717
10 regular 1 54 54 71 2.500000e+00 0.168 slower 0 2.328073e+06 2.328076e+06 3.170
10 regular 1 55 55 72 2.500000e+00 0.376 faster 1 2.328078e+06 2.328081e+06 3.254
10 regular 1 56 56 48 2.500000e+00 0.190 faster 0 2.328083e+06 2.328086e+06 3.923
10 regular 1 57 57 47 2.500000e+00 0.170 slower 1 2.328088e+06 2.328091e+06 3.100
10 regular 1 58 58 72 2.500000e+00 0.207 faster 1 2.328092e+06 2.328096e+06 3.436
10 regular 1 59 59 48 2.500000e+00 0.371 faster 0 2.328097e+06 2.328101e+06 3.776
10 regular 1 60 60 47 2.500000e+00 0.485 faster 0 2.328103e+06 2.328107e+06 3.718
10 regular 1 61 61 46 2.500000e+00 0.571 slower 1 2.328109e+06 2.328112e+06 3.233
10 regular 1 62 62 47 2.500000e+00 0.441 slower 1 2.328114e+06 2.328117e+06 3.301
10 regular 1 63 63 73 2.500000e+00 0.357 faster 1 2.328118e+06 2.328121e+06 3.158
10 regular 1 64 64 72 2.500000e+00 0.292 faster 1 2.328122e+06 2.328126e+06 3.276
10 regular 1 65 65 48 2.500000e+00 0.487 slower 1 2.328127e+06 2.328130e+06 3.365
10 regular 1 66 66 71 2.500000e+00 0.269 faster 1 2.328132e+06 2.328135e+06 3.314
10 regular 1 67 67 71 2.500000e+00 0.377 faster 1 2.328136e+06 2.328140e+06 3.255
10 regular 1 68 68 50 2.500000e+00 0.594 faster 0 2.328142e+06 2.328145e+06 3.285
10 regular 1 69 69 49 2.500000e+00 0.365 faster 0 2.328147e+06 2.328150e+06 3.124
10 regular 1 70 70 48 2.500000e+00 0.202 slower 1 2.328152e+06 2.328155e+06 3.240
10 regular 1 71 71 48 2.500000e+00 0.588 faster 0 2.328157e+06 2.328161e+06 4.131
10 regular 1 72 72 47 2.500000e+00 0.269 slower 1 2.328163e+06 2.328166e+06 3.683
10 regular 1 73 73 48 2.500000e+00 0.421 faster 0 2.328168e+06 2.328172e+06 3.593
10 regular 1 74 74 73 2.500000e+00 0.504 faster 1 2.328174e+06 2.328177e+06 3.158
10 regular 1 75 75 47 2.500000e+00 0.413 faster 0 2.328179e+06 2.328182e+06 3.147
10 regular 1 76 76 74 2.500000e+00 0.591 faster 1 2.328183e+06 2.328186e+06 3.150
10 regular 1 77 77 47 2.500000e+00 0.248 slower 1 2.328187e+06 2.328191e+06 3.263
10 regular 1 78 78 73 2.500000e+00 0.397 faster 1 2.328193e+06 2.328196e+06 3.308
10 regular 1 79 79 48 2.500000e+00 0.151 faster 0 2.328199e+06 2.328203e+06 4.252
10 regular 1 80 80 73 2.500000e+00 0.410 faster 1 2.328204e+06 2.328208e+06 4.113
10 regular 1 81 81 73 2.500000e+00 0.426 faster 1 2.328210e+06 2.328213e+06 3.481
10 regular 1 82 82 48 2.500000e+00 0.323 slower 1 2.328215e+06 2.328219e+06 3.987
10 regular 1 83 83 72 2.500000e+00 0.349 faster 1 2.328221e+06 2.328224e+06 3.076
10 regular 1 84 84 49 2.500000e+00 0.431 slower 1 2.328225e+06 2.328229e+06 3.456
10 regular 1 85 85 49 2.500000e+00 0.466 slower 1 2.328232e+06 2.328236e+06 3.733
10 regular 1 86 86 50 2.500000e+00 0.330 faster 0 2.328237e+06 2.328241e+06 3.144
10 regular 1 87 87 71 2.500000e+00 0.270 faster 1 2.328242e+06 2.328245e+06 3.001
10 regular 1 88 88 49 2.500000e+00 0.570 faster 0 2.328248e+06 2.328251e+06 3.419
10 regular 1 89 89 48 2.500000e+00 0.595 faster 0 2.328254e+06 2.328258e+06 3.604
10 regular 1 90 90 47 2.500000e+00 0.340 faster 0 2.328259e+06 2.328262e+06 3.412
10 regular 1 91 91 74 2.500000e+00 0.115 none 2 2.328267e+06 2.328273e+06 5.500
10 regular 1 92 92 74 2.500000e+00 0.564 none 2 2.328274e+06 2.328279e+06 5.499
10 regular 1 93 93 74 2.500000e+00 0.352 none 2 2.328280e+06 2.328286e+06 5.499
10 regular 1 94 94 74 2.500000e+00 0.578 faster 1 2.328287e+06 2.328290e+06 3.418
10 regular 1 95 95 73 2.500000e+00 0.231 faster 1 2.328292e+06 2.328295e+06 3.208
10 regular 1 96 96 47 2.500000e+00 0.231 faster 0 2.328297e+06 2.328300e+06 3.229
10 regular 1 97 97 74 2.500000e+00 0.111 faster 1 2.328302e+06 2.328305e+06 3.226
10 regular 1 98 98 47 2.500000e+00 0.561 faster 0 2.328307e+06 2.328310e+06 3.144
10 regular 1 99 99 46 2.500000e+00 0.490 slower 1 2.328311e+06 2.328315e+06 3.517
10 regular 1 100 100 74 2.500000e+00 0.447 faster 1 2.328316e+06 2.328319e+06 3.071
10 irregular 2 1 101 47 3 0.200 slower 1 2.328456e+06 2.328460e+06 4.122
10 irregular 2 2 102 47 1 0.441 faster 0 2.328462e+06 2.328465e+06 2.697
10 irregular 2 3 103 46 1 0.247 faster 0 2.328466e+06 2.328468e+06 2.577
10 irregular 2 4 104 75 1 0.271 faster 1 2.328470e+06 2.328472e+06 1.851
10 irregular 2 5 105 74 1 0.350 faster 1 2.328473e+06 2.328475e+06 2.362
10 irregular 2 6 106 46 3 0.365 slower 1 2.328477e+06 2.328481e+06 4.003
10 irregular 2 7 107 73 2 0.518 faster 1 2.328482e+06 2.328486e+06 4.204
10 irregular 2 8 108 47 2 0.422 slower 1 2.328487e+06 2.328490e+06 2.797
10 irregular 2 9 109 48 1 0.454 faster 0 2.328492e+06 2.328494e+06 2.350
10 irregular 2 10 110 73 1.500000e+00 0.328 faster 1 2.328495e+06 2.328498e+06 2.320
10 irregular 2 11 111 73 2.500000e+00 0.562 slower 0 2.328499e+06 2.328503e+06 4.010
10 irregular 2 12 112 74 1 0.554 faster 1 2.328505e+06 2.328507e+06 2.282
10 irregular 2 13 113 47 3 0.206 slower 1 2.328509e+06 2.328513e+06 3.914
10 irregular 2 14 114 73 3 0.365 faster 1 2.328515e+06 2.328519e+06 3.769
10 irregular 2 15 115 72 1.500000e+00 0.154 faster 1 2.328520e+06 2.328523e+06 2.716
10 irregular 2 16 116 48 2.500000e+00 0.179 faster 0 2.328524e+06 2.328528e+06 4.279
10 irregular 2 17 117 47 1 0.459 faster 0 2.328530e+06 2.328532e+06 2.784
10 irregular 2 18 118 46 2 0.188 slower 1 2.328534e+06 2.328537e+06 3.283
10 irregular 2 19 119 47 1.500000e+00 0.363 faster 0 2.328539e+06 2.328541e+06 2.745
10 irregular 2 20 120 74 2.500000e+00 0.594 faster 1 2.328543e+06 2.328546e+06 3.186
10 irregular 2 21 121 46 2.500000e+00 0.489 slower 1 2.328549e+06 2.328552e+06 3.342
10 irregular 2 22 122 47 3 0.189 slower 1 2.328553e+06 2.328557e+06 3.860
10 irregular 2 23 123 47 2 0.270 faster 0 2.328558e+06 2.328561e+06 3.173
10 irregular 2 24 124 74 2.500000e+00 0.270 faster 1 2.328563e+06 2.328567e+06 3.797
10 irregular 2 25 125 47 1 0.389 faster 0 2.328569e+06 2.328571e+06 1.876
10 irregular 2 26 126 74 2 0.343 faster 1 2.328572e+06 2.328575e+06 2.780
10 irregular 2 27 127 74 1 0.201 faster 1 2.328576e+06 2.328579e+06 2.256
10 irregular 2 28 128 73 3 0.327 slower 0 2.328580e+06 2.328584e+06 3.686
10 irregular 2 29 129 74 2 0.329 faster 1 2.328585e+06 2.328588e+06 2.658
10 irregular 2 30 130 74 1.500000e+00 0.208 none 2 2.328589e+06 2.328594e+06 4.499
10 irregular 2 31 131 74 2 0.203 slower 0 2.328595e+06 2.328598e+06 3.497
10 irregular 2 32 132 45 2.500000e+00 0.581 slower 1 2.328600e+06 2.328604e+06 3.769
10 irregular 2 33 133 74 2.500000e+00 0.176 faster 1 2.328605e+06 2.328608e+06 3.205
10 irregular 2 34 134 74 1.500000e+00 0.239 faster 1 2.328610e+06 2.328612e+06 2.146
10 irregular 2 35 135 47 1.500000e+00 0.195 faster 0 2.328613e+06 2.328616e+06 2.610
10 irregular 2 36 136 74 1 0.101 faster 1 2.328617e+06 2.328619e+06 1.565
10 irregular 2 37 137 46 1 0.178 faster 0 2.328620e+06 2.328622e+06 1.811
10 irregular 2 38 138 75 2.500000e+00 0.181 faster 1 2.328623e+06 2.328626e+06 3.127
10 irregular 2 39 139 74 3 0.566 faster 1 2.328628e+06 2.328632e+06 3.657
10 irregular 2 40 140 46 1 0.248 none 2 2.328633e+06 2.328637e+06 3.999
10 irregular 2 41 141 46 2.500000e+00 0.115 slower 1 2.328638e+06 2.328642e+06 3.401
10 irregular 2 42 142 73 1.500000e+00 0.127 faster 1 2.328643e+06 2.328646e+06 3.168
10 irregular 2 43 143 47 3 0.460 slower 1 2.328648e+06 2.328651e+06 3.917
10 irregular 2 44 144 72 3 0.372 slower 0 2.328654e+06 2.328658e+06 4.461
10 irregular 2 45 145 73 2 0.315 faster 1 2.328660e+06 2.328663e+06 2.680
10 irregular 2 46 146 47 3 0.164 slower 1 2.328664e+06 2.328668e+06 3.759
10 irregular 2 47 147 72 2.500000e+00 0.507 faster 1 2.328669e+06 2.328673e+06 3.628
10 irregular 2 48 148 48 3 0.130 slower 1 2.328674e+06 2.328678e+06 3.734
10 irregular 2 49 149 71 3 0.527 slower 0 2.328680e+06 2.328683e+06 3.871
10 irregular 2 50 150 48 1.500000e+00 0.350 slower 1 2.328685e+06 2.328688e+06 2.422
10 irregular 2 51 151 72 3 0.584 slower 0 2.328690e+06 2.328693e+06 3.712
10 irregular 2 52 152 73 3 0.176 faster 1 2.328694e+06 2.328698e+06 3.851
10 irregular 2 53 153 48 2.500000e+00 0.220 faster 0 2.328700e+06 2.328703e+06 3.307
10 irregular 2 54 154 47 1.500000e+00 0.591 faster 0 2.328705e+06 2.328708e+06 3.007
10 irregular 2 55 155 74 1 0.217 slower 0 2.328709e+06 2.328711e+06 2.384
10 irregular 2 56 156 75 2 0.139 faster 1 2.328713e+06 2.328716e+06 2.829
10 irregular 2 57 157 45 1.500000e+00 0.180 faster 0 2.328717e+06 2.328719e+06 2.169
10 irregular 2 58 158 44 2 0.395 faster 0 2.328720e+06 2.328723e+06 3.152
10 irregular 2 59 159 43 1.500000e+00 0.209 faster 0 2.328725e+06 2.328727e+06 2.550
10 irregular 2 60 160 42 2 0.477 slower 1 2.328729e+06 2.328732e+06 3.357
10 irregular 2 61 161 43 2.500000e+00 0.196 faster 0 2.328733e+06 2.328738e+06 4.666
10 irregular 2 62 162 42 2.500000e+00 0.291 slower 1 2.328740e+06 2.328743e+06 3.272
10 irregular 2 63 163 78 1.500000e+00 0.332 faster 1 2.328745e+06 2.328747e+06 2.358
10 irregular 2 64 164 43 2 0.157 faster 0 2.328748e+06 2.328751e+06 3.049
10 irregular 2 65 165 42 2 0.218 faster 0 2.328753e+06 2.328756e+06 2.860
10 irregular 2 66 166 41 1 0.335 none 2 2.328758e+06 2.328762e+06 4.000
10 irregular 2 67 167 79 1 0.122 faster 1 2.328763e+06 2.328765e+06 2.078
10 irregular 2 68 168 79 2.500000e+00 0.325 faster 1 2.328766e+06 2.328769e+06 3.088
10 irregular 2 69 169 78 2.500000e+00 0.501 faster 1 2.328771e+06 2.328775e+06 3.782
10 irregular 2 70 170 42 2 0.277 faster 0 2.328776e+06 2.328779e+06 2.779
10 irregular 2 71 171 41 1.500000e+00 0.224 faster 0 2.328780e+06 2.328784e+06 3.758
10 irregular 2 72 172 80 1 0.289 faster 1 2.328785e+06 2.328788e+06 2.872
10 irregular 2 73 173 41 3 0.366 slower 1 2.328790e+06 2.328793e+06 3.713
10 irregular 2 74 174 79 1 0.125 faster 1 2.328795e+06 2.328797e+06 2.140
10 irregular 2 75 175 42 1.500000e+00 0.424 slower 1 2.328798e+06 2.328801e+06 2.756
10 irregular 2 76 176 42 2 0.575 faster 0 2.328803e+06 2.328806e+06 3.030
10 irregular 2 77 177 79 3 0.307 faster 1 2.328807e+06 2.328811e+06 3.631
10 irregular 2 78 178 78 1.500000e+00 0.595 faster 1 2.328813e+06 2.328815e+06 2.120
10 irregular 2 79 179 78 2 0.539 faster 1 2.328817e+06 2.328819e+06 2.731
10 irregular 2 80 180 43 3 0.253 none 2 2.328821e+06 2.328827e+06 5.999
10 irregular 2 81 181 43 2 0.217 slower 1 2.328828e+06 2.328831e+06 3.809
10 irregular 2 82 182 77 3 0.140 faster 1 2.328832e+06 2.328836e+06 3.619
10 irregular 2 83 183 44 3 0.466 slower 1 2.328837e+06 2.328841e+06 3.742
10 irregular 2 84 184 76 1 0.115 none 2 2.328843e+06 2.328847e+06 4.000
10 irregular 2 85 185 76 3 0.405 none 2 2.328848e+06 2.328854e+06 5.999
10 irregular 2 86 186 76 2 0.259 slower 0 2.328855e+06 2.328858e+06 3.172
10 irregular 2 87 187 77 1.500000e+00 0.142 faster 1 2.328859e+06 2.328862e+06 2.947
10 irregular 2 88 188 76 2.500000e+00 0.345 faster 1 2.328864e+06 2.328867e+06 3.626
10 irregular 2 89 189 44 1 0.437 faster 0 2.328869e+06 2.328871e+06 2.447
10 irregular 2 90 190 43 2.500000e+00 0.477 slower 1 2.328873e+06 2.328876e+06 3.521
10 irregular 2 91 191 44 1.500000e+00 0.282 slower 1 2.328879e+06 2.328881e+06 2.696
10 irregular 2 92 192 76 1.500000e+00 0.131 faster 1 2.328883e+06 2.328885e+06 2.482
10 irregular 2 93 193 75 1.500000e+00 0.267 faster 1 2.328886e+06 2.328888e+06 2.532
10 irregular 2 94 194 45 2.500000e+00 0.346 slower 1 2.328890e+06 2.328894e+06 4.473
10 irregular 2 95 195 46 1.500000e+00 0.299 faster 0 2.328895e+06 2.328898e+06 2.461
10 irregular 2 96 196 45 2.500000e+00 0.149 faster 0 2.328899e+06 2.328903e+06 3.375
10 irregular 2 97 197 76 2.500000e+00 0.193 faster 1 2.328905e+06 2.328908e+06 3.215
10 irregular 2 98 198 76 2 0.325 faster 1 2.328910e+06 2.328913e+06 2.544
10 irregular 2 99 199 45 1 0.442 faster 0 2.328915e+06 2.328917e+06 2.581
10 irregular 2 100 200 76 2 0.519 faster 1 2.328919e+06 2.328922e+06 2.848
10 regular 3 1 201 76 1 0.481 faster 1 2.329160e+06 2.329162e+06 2.388
10 regular 3 2 202 45 1 0.165 faster 0 2.329163e+06 2.329166e+06 2.681
10 regular 3 3 203 44 1 0.447 slower 1 2.329167e+06 2.329170e+06 2.789
10 regular 3 4 204 44 1 0.266 slower 1 2.329171e+06 2.329174e+06 3.063
10 regular 3 5 205 45 1 0.387 faster 0 2.329176e+06 2.329178e+06 2.404
10 regular 3 6 206 76 1 0.388 faster 1 2.329180e+06 2.329181e+06 1.824
10 regular 3 7 207 76 1 0.119 faster 1 2.329182e+06 2.329184e+06 1.691
10 regular 3 8 208 45 1 0.404 slower 1 2.329186e+06 2.329187e+06 1.845
10 regular 3 9 209 75 1 0.372 faster 1 2.329189e+06 2.329190e+06 1.660
10 regular 3 10 210 74 1 0.461 faster 1 2.329192e+06 2.329193e+06 1.523
10 regular 3 11 211 74 1 0.406 faster 1 2.329195e+06 2.329196e+06 1.465
10 regular 3 12 212 73 1 0.344 faster 1 2.329199e+06 2.329201e+06 1.846
10 regular 3 13 213 73 1 0.445 faster 1 2.329202e+06 2.329204e+06 1.729
10 regular 3 14 214 48 1 0.341 slower 1 2.329206e+06 2.329208e+06 2.028
10 regular 3 15 215 72 1 0.442 faster 1 2.329209e+06 2.329211e+06 1.512
10 regular 3 16 216 49 1 0.283 slower 1 2.329212e+06 2.329213e+06 1.616
10 regular 3 17 217 49 1 0.405 faster 0 2.329215e+06 2.329217e+06 1.941
10 regular 3 18 218 48 1 0.160 faster 0 2.329218e+06 2.329220e+06 1.600
10 regular 3 19 219 47 1 0.470 faster 0 2.329221e+06 2.329223e+06 1.882
10 regular 3 20 220 74 1 0.306 faster 1 2.329225e+06 2.329227e+06 2.897
10 regular 3 21 221 47 1 0.547 slower 1 2.329229e+06 2.329231e+06 2.148
10 regular 3 22 222 47 1 0.557 slower 1 2.329233e+06 2.329234e+06 1.684
10 regular 3 23 223 72 1 0.438 faster 1 2.329236e+06 2.329238e+06 1.872
10 regular 3 24 224 48 1 0.400 faster 0 2.329239e+06 2.329242e+06 2.498
10 regular 3 25 225 47 1 0.533 slower 1 2.329243e+06 2.329245e+06 1.773
10 regular 3 26 226 48 1 0.541 slower 1 2.329247e+06 2.329249e+06 1.926
10 regular 3 27 227 72 1 0.203 faster 1 2.329250e+06 2.329251e+06 1.588
10 regular 3 28 228 71 1 0.384 slower 0 2.329253e+06 2.329255e+06 1.871
10 regular 3 29 229 48 1 0.284 slower 1 2.329256e+06 2.329258e+06 1.948
10 regular 3 30 230 72 1 0.253 faster 1 2.329260e+06 2.329262e+06 1.728
10 regular 3 31 231 49 1 0.170 faster 0 2.329263e+06 2.329265e+06 2.333
10 regular 3 32 232 48 1 0.404 faster 0 2.329267e+06 2.329269e+06 1.661
10 regular 3 33 233 47 1 0.519 slower 1 2.329271e+06 2.329273e+06 2.698
10 regular 3 34 234 73 1 0.193 faster 1 2.329275e+06 2.329276e+06 1.495
10 regular 3 35 235 48 1 0.415 faster 0 2.329277e+06 2.329279e+06 1.748
10 regular 3 36 236 47 1 0.464 faster 0 2.329280e+06 2.329282e+06 1.654
10 regular 3 37 237 74 1 0.438 faster 1 2.329284e+06 2.329285e+06 1.464
10 regular 3 38 238 74 1 0.240 faster 1 2.329286e+06 2.329288e+06 1.405
10 regular 3 39 239 73 1 0.374 faster 1 2.329289e+06 2.329291e+06 1.562
10 regular 3 40 240 47 1 0.398 faster 0 2.329294e+06 2.329295e+06 1.540
10 regular 3 41 241 46 1 0.179 faster 0 2.329296e+06 2.329298e+06 1.657
10 regular 3 42 242 75 1 0.170 faster 1 2.329299e+06 2.329301e+06 1.443
10 regular 3 43 243 46 1 0.400 slower 1 2.329302e+06 2.329304e+06 2.003
10 regular 3 44 244 46 1 0.395 slower 1 2.329306e+06 2.329308e+06 1.797
10 regular 3 45 245 73 1 0.259 faster 1 2.329309e+06 2.329311e+06 1.815
10 regular 3 46 246 73 1 0.175 faster 1 2.329312e+06 2.329314e+06 1.927
10 regular 3 47 247 72 1 0.268 faster 1 2.329315e+06 2.329317e+06 1.938
10 regular 3 48 248 72 1 0.342 faster 1 2.329319e+06 2.329321e+06 2.352
10 regular 3 49 249 49 1 0.544 slower 1 2.329323e+06 2.329324e+06 1.787
10 regular 3 50 250 49 1 0.373 slower 1 2.329326e+06 2.329328e+06 1.647
10 regular 3 51 251 50 1 0.107 faster 0 2.329328e+06 2.329330e+06 1.628
10 regular 3 52 252 71 1 0.330 faster 1 2.329333e+06 2.329335e+06 1.921
10 regular 3 53 253 71 1 0.336 faster 1 2.329336e+06 2.329338e+06 1.767
10 regular 3 54 254 70 1 0.517 faster 1 2.329340e+06 2.329341e+06 1.564
10 regular 3 55 255 50 1 0.222 faster 0 2.329342e+06 2.329344e+06 1.784
10 regular 3 56 256 49 1 0.255 faster 0 2.329345e+06 2.329347e+06 1.849
10 regular 3 57 257 72 1 0.169 faster 1 2.329349e+06 2.329350e+06 1.531
10 regular 3 58 258 71 1 0.352 slower 0 2.329351e+06 2.329353e+06 1.686
10 regular 3 59 259 48 1 0.435 faster 0 2.329354e+06 2.329356e+06 1.914
10 regular 3 60 260 73 1 0.226 faster 1 2.329358e+06 2.329360e+06 1.722
10 regular 3 61 261 47 1 0.297 slower 1 2.329361e+06 2.329363e+06 1.730
10 regular 3 62 262 48 1 0.169 slower 1 2.329365e+06 2.329366e+06 1.497
10 regular 3 63 263 48 1 0.190 slower 1 2.329368e+06 2.329369e+06 1.556
10 regular 3 64 264 49 1 0.258 slower 1 2.329371e+06 2.329372e+06 1.443
10 regular 3 65 265 71 1 0.173 faster 1 2.329373e+06 2.329375e+06 1.644
10 regular 3 66 266 70 1 0.314 faster 1 2.329376e+06 2.329377e+06 1.366
10 regular 3 67 267 70 1 0.350 faster 1 2.329378e+06 2.329380e+06 1.509
10 regular 3 68 268 69 1 0.138 slower 0 2.329381e+06 2.329383e+06 2.286
10 regular 3 69 269 50 1 0.411 slower 1 2.329385e+06 2.329387e+06 2.032
10 regular 3 70 270 70 1 0.271 faster 1 2.329388e+06 2.329390e+06 1.606
10 regular 3 71 271 69 1 0.194 faster 1 2.329391e+06 2.329393e+06 1.694
10 regular 3 72 272 51 1 0.175 slower 1 2.329394e+06 2.329396e+06 2.127
10 regular 3 73 273 52 1 0.288 faster 0 2.329398e+06 2.329399e+06 1.793
10 regular 3 74 274 69 1 0.377 slower 0 2.329401e+06 2.329402e+06 1.715
10 regular 3 75 275 50 1 0.555 faster 0 2.329404e+06 2.329406e+06 1.700
10 regular 3 76 276 49 1 0.503 slower 1 2.329407e+06 2.329409e+06 1.797
10 regular 3 77 277 71 1 0.173 faster 1 2.329410e+06 2.329412e+06 1.661
10 regular 3 78 278 70 1 0.512 faster 1 2.329413e+06 2.329415e+06 1.684
10 regular 3 79 279 70 1 0.213 faster 1 2.329416e+06 2.329418e+06 1.729
10 regular 3 80 280 69 1 0.341 slower 0 2.329419e+06 2.329422e+06 2.091
10 regular 3 81 281 50 1 0.188 slower 1 2.329423e+06 2.329425e+06 1.769
10 regular 3 82 282 70 1 0.496 slower 0 2.329426e+06 2.329428e+06 1.843
10 regular 3 83 283 71 1 0.553 slower 0 2.329430e+06 2.329432e+06 2.323
10 regular 3 84 284 48 1 0.303 slower 1 2.329433e+06 2.329436e+06 2.037
10 regular 3 85 285 71 1 0.235 faster 1 2.329437e+06 2.329439e+06 1.690
10 regular 3 86 286 71 1 0.140 faster 1 2.329440e+06 2.329442e+06 1.821
10 regular 3 87 287 50 1 0.129 faster 0 2.329443e+06 2.329445e+06 1.948
10 regular 3 88 288 49 1 0.170 slower 1 2.329447e+06 2.329449e+06 1.828
10 regular 3 89 289 71 1 0.582 faster 1 2.329452e+06 2.329454e+06 1.857
10 regular 3 90 290 70 1 0.595 faster 1 2.329456e+06 2.329457e+06 1.593
10 regular 3 91 291 70 1 0.497 faster 1 2.329459e+06 2.329460e+06 1.507
10 regular 3 92 292 51 1 0.283 slower 1 2.329462e+06 2.329464e+06 2.155
10 regular 3 93 293 51 1 0.362 slower 1 2.329466e+06 2.329468e+06 2.073
10 regular 3 94 294 68 1 0.576 faster 1 2.329470e+06 2.329471e+06 1.770
10 regular 3 95 295 68 1 0.311 faster 1 2.329473e+06 2.329474e+06 1.698
10 regular 3 96 296 53 1 0.216 faster 0 2.329476e+06 2.329477e+06 1.651
10 regular 3 97 297 52 1 0.357 faster 0 2.329479e+06 2.329480e+06 1.542
10 regular 3 98 298 51 1 0.169 faster 0 2.329482e+06 2.329483e+06 1.595
10 regular 3 99 299 50 1 0.452 slower 1 2.329485e+06 2.329486e+06 1.738
10 regular 3 100 300 70 1 0.562 faster 1 2.329488e+06 2.329490e+06 1.632
10 irregular 4 1 301 69 2.500000e+00 0.385 slower 0 2.329512e+06 2.329517e+06 4.247
10 irregular 4 2 302 70 1.500000e+00 0.413 faster 1 2.329518e+06 2.329521e+06 2.626
10 irregular 4 3 303 50 2.500000e+00 0.187 slower 1 2.329522e+06 2.329526e+06 3.421
10 irregular 4 4 304 69 3 0.314 slower 0 2.329528e+06 2.329531e+06 3.767
10 irregular 4 5 305 50 2 0.372 slower 1 2.329534e+06 2.329537e+06 2.787
10 irregular 4 6 306 50 3 0.460 slower 1 2.329539e+06 2.329543e+06 3.876
10 irregular 4 7 307 69 2.500000e+00 0.551 faster 1 2.329545e+06 2.329548e+06 3.217
10 irregular 4 8 308 51 1.500000e+00 0.445 faster 0 2.329551e+06 2.329553e+06 2.200
10 irregular 4 9 309 70 2 0.563 slower 0 2.329554e+06 2.329557e+06 3.127
10 irregular 4 10 310 49 1 0.283 faster 0 2.329558e+06 2.329561e+06 2.760
10 irregular 4 11 311 48 3 0.497 slower 1 2.329563e+06 2.329566e+06 3.788
10 irregular 4 12 312 71 3 0.110 none 2 2.329568e+06 2.329574e+06 5.999
10 irregular 4 13 313 49 1 0.295 faster 0 2.329575e+06 2.329577e+06 2.257
10 irregular 4 14 314 72 1 0.437 faster 1 2.329578e+06 2.329580e+06 1.489
10 irregular 4 15 315 48 3 0.274 slower 1 2.329581e+06 2.329585e+06 3.768
10 irregular 4 16 316 49 1 0.146 faster 0 2.329587e+06 2.329589e+06 1.664
10 irregular 4 17 317 72 1.500000e+00 0.413 faster 1 2.329590e+06 2.329592e+06 2.248
10 irregular 4 18 318 72 2 0.557 slower 0 2.329594e+06 2.329597e+06 3.045
10 irregular 4 19 319 73 3 0.396 faster 1 2.329599e+06 2.329603e+06 3.927
10 irregular 4 20 320 72 2.500000e+00 0.311 faster 1 2.329605e+06 2.329609e+06 3.911
10 irregular 4 21 321 72 1 0.294 slower 0 2.329610e+06 2.329613e+06 2.177
10 irregular 4 22 322 73 1.500000e+00 0.447 faster 1 2.329614e+06 2.329617e+06 2.791
10 irregular 4 23 323 72 1 0.324 faster 1 2.329618e+06 2.329620e+06 2.149
10 irregular 4 24 324 72 2 0.349 faster 1 2.329622e+06 2.329624e+06 2.734
10 irregular 4 25 325 71 1 0.495 faster 1 2.329626e+06 2.329628e+06 1.900
10 irregular 4 26 326 71 3 0.315 slower 0 2.329629e+06 2.329634e+06 5.538
10 irregular 4 27 327 48 2 0.251 faster 0 2.329635e+06 2.329638e+06 2.877
10 irregular 4 28 328 73 2 0.252 faster 1 2.329639e+06 2.329642e+06 2.996
10 irregular 4 29 329 48 2 0.354 faster 0 2.329643e+06 2.329646e+06 2.843
10 irregular 4 30 330 73 3 0.548 slower 0 2.329649e+06 2.329652e+06 3.827
10 irregular 4 31 331 46 2.500000e+00 0.124 faster 0 2.329654e+06 2.329657e+06 3.234
10 irregular 4 32 332 45 2 0.107 faster 0 2.329658e+06 2.329661e+06 3.224
10 irregular 4 33 333 76 1 0.138 faster 1 2.329662e+06 2.329664e+06 1.804
10 irregular 4 34 334 44 2 0.594 slower 1 2.329666e+06 2.329669e+06 2.872
10 irregular 4 35 335 45 1 0.218 slower 1 2.329670e+06 2.329672e+06 2.084
10 irregular 4 36 336 75 3 0.531 slower 0 2.329674e+06 2.329678e+06 4.008
10 irregular 4 37 337 44 2 0.359 slower 1 2.329680e+06 2.329682e+06 2.742
10 irregular 4 38 338 45 3 0.546 slower 1 2.329684e+06 2.329688e+06 3.659
10 irregular 4 39 339 75 2 0.505 faster 1 2.329689e+06 2.329692e+06 2.717
10 irregular 4 40 340 74 1.500000e+00 0.596 slower 0 2.329694e+06 2.329696e+06 2.663
10 irregular 4 41 341 75 2.500000e+00 0.519 faster 1 2.329698e+06 2.329701e+06 2.988
10 irregular 4 42 342 45 1.500000e+00 0.210 slower 1 2.329703e+06 2.329706e+06 2.451
10 irregular 4 43 343 74 3 0.342 slower 0 2.329708e+06 2.329711e+06 3.781
10 irregular 4 44 344 75 1.500000e+00 0.193 faster 1 2.329713e+06 2.329715e+06 2.138
10 irregular 4 45 345 45 2 0.241 none 2 2.329717e+06 2.329722e+06 5.000
10 irregular 4 46 346 45 1.500000e+00 0.486 slower 1 2.329723e+06 2.329725e+06 2.612
10 irregular 4 47 347 46 2 0.312 slower 1 2.329728e+06 2.329731e+06 3.166
10 irregular 4 48 348 46 1 0.238 slower 1 2.329732e+06 2.329734e+06 2.209
10 irregular 4 49 349 73 1.500000e+00 0.208 faster 1 2.329735e+06 2.329738e+06 2.207
10 irregular 4 50 350 73 1 0.114 faster 1 2.329739e+06 2.329741e+06 2.097
10 irregular 4 51 351 72 2 0.493 slower 0 2.329743e+06 2.329746e+06 2.663
10 irregular 4 52 352 73 2 0.514 faster 1 2.329747e+06 2.329750e+06 2.555
10 irregular 4 53 353 47 1 0.306 faster 0 2.329751e+06 2.329754e+06 2.466
10 irregular 4 54 354 46 1 0.440 slower 1 2.329758e+06 2.329760e+06 1.963
10 irregular 4 55 355 73 2 0.211 faster 1 2.329761e+06 2.329764e+06 3.287
10 irregular 4 56 356 47 2.500000e+00 0.346 slower 1 2.329767e+06 2.329771e+06 3.593
10 irregular 4 57 357 72 1 0.386 slower 0 2.329773e+06 2.329775e+06 1.847
10 irregular 4 58 358 47 3 0.441 slower 1 2.329777e+06 2.329781e+06 3.883
10 irregular 4 59 359 73 1.500000e+00 0.478 slower 0 2.329784e+06 2.329786e+06 2.222
10 irregular 4 60 360 46 3 0.530 slower 1 2.329788e+06 2.329792e+06 3.591
10 irregular 4 61 361 73 2.500000e+00 0.256 faster 1 2.329793e+06 2.329796e+06 3.302
10 irregular 4 62 362 73 2.500000e+00 0.559 slower 0 2.329798e+06 2.329802e+06 3.406
10 irregular 4 63 363 46 2.500000e+00 0.514 slower 1 2.329804e+06 2.329807e+06 3.409
10 irregular 4 64 364 47 3 0.317 slower 1 2.329809e+06 2.329812e+06 3.707
10 irregular 4 65 365 47 2.500000e+00 0.222 none 2 2.329813e+06 2.329819e+06 5.500
10 irregular 4 66 366 47 2 0.355 slower 1 2.329820e+06 2.329823e+06 2.862
10 irregular 4 67 367 48 1.500000e+00 0.565 slower 1 2.329825e+06 2.329827e+06 2.015
10 irregular 4 68 368 48 1.500000e+00 0.424 slower 1 2.329829e+06 2.329831e+06 2.288
10 irregular 4 69 369 49 3 0.321 slower 1 2.329832e+06 2.329836e+06 3.861
10 irregular 4 70 370 71 2.500000e+00 0.410 slower 0 2.329839e+06 2.329842e+06 3.891
10 irregular 4 71 371 48 2.500000e+00 0.186 slower 1 2.329843e+06 2.329847e+06 3.660
10 irregular 4 72 372 71 1 0.312 slower 0 2.329849e+06 2.329851e+06 1.923
10 irregular 4 73 373 72 3 0.149 slower 0 2.329851e+06 2.329856e+06 4.846
10 irregular 4 74 374 73 1.500000e+00 0.255 faster 1 2.329858e+06 2.329860e+06 2.293
10 irregular 4 75 375 73 2 0.489 faster 1 2.329863e+06 2.329865e+06 2.541
10 irregular 4 76 376 48 2 0.357 slower 1 2.329867e+06 2.329869e+06 2.763
10 irregular 4 77 377 72 2.500000e+00 0.567 faster 1 2.329871e+06 2.329874e+06 3.184
10 irregular 4 78 378 49 1.500000e+00 0.199 faster 0 2.329876e+06 2.329879e+06 2.941
10 irregular 4 79 379 48 1.500000e+00 0.178 none 2 2.329880e+06 2.329884e+06 4.500
10 irregular 4 80 380 48 3 0.465 slower 1 2.329886e+06 2.329889e+06 3.844
10 irregular 4 81 381 72 1.500000e+00 0.145 faster 1 2.329892e+06 2.329894e+06 2.112
10 irregular 4 82 382 49 2.500000e+00 0.488 slower 1 2.329895e+06 2.329899e+06 3.300
10 irregular 4 83 383 71 2.500000e+00 0.475 faster 1 2.329900e+06 2.329904e+06 3.245
10 irregular 4 84 384 50 1.500000e+00 0.378 faster 0 2.329909e+06 2.329912e+06 2.482
10 irregular 4 85 385 49 1.500000e+00 0.393 faster 0 2.329913e+06 2.329916e+06 2.434
10 irregular 4 86 386 48 2.500000e+00 0.316 faster 0 2.329918e+06 2.329921e+06 3.386
10 irregular 4 87 387 73 2.500000e+00 0.319 faster 1 2.329923e+06 2.329927e+06 3.380
10 irregular 4 88 388 47 1 0.558 none 2 2.329929e+06 2.329933e+06 4.000
10 irregular 4 89 389 47 2.500000e+00 0.316 none 2 2.329934e+06 2.329940e+06 5.500
10 irregular 4 90 390 47 2.500000e+00 0.232 slower 1 2.329940e+06 2.329944e+06 3.972
10 irregular 4 91 391 48 1 0.451 none 2 2.329947e+06 2.329951e+06 4.000
10 irregular 4 92 392 72 2 0.280 faster 1 2.329952e+06 2.329956e+06 3.276
10 irregular 4 93 393 72 1 0.392 slower 0 2.329957e+06 2.329959e+06 2.420
10 irregular 4 94 394 73 1.500000e+00 0.434 slower 0 2.329960e+06 2.329963e+06 2.506
10 irregular 4 95 395 74 3 0.445 faster 1 2.329964e+06 2.329968e+06 3.755
10 irregular 4 96 396 73 3 0.194 slower 0 2.329970e+06 2.329974e+06 3.888
10 irregular 4 97 397 46 1.500000e+00 0.531 none 2 2.329975e+06 2.329979e+06 4.500
10 irregular 4 98 398 46 1 0.192 faster 0 2.329980e+06 2.329984e+06 3.671
10 irregular 4 99 399 45 3 0.157 slower 1 2.329985e+06 2.329989e+06 3.731
10 irregular 4 100 400 75 1 0.539 slower 0 2.329991e+06 2.329993e+06 1.948
10 regular 5 1 401 48 2 0.143 slower 1 2.428192e+06 2.428195e+06 2.998
10 regular 5 2 402 72 2 0.355 faster 1 2.428197e+06 2.428200e+06 2.860
10 regular 5 3 403 50 2 0.464 faster 0 2.428201e+06 2.428204e+06 2.668
10 regular 5 4 404 72 2 0.147 faster 1 2.428205e+06 2.428208e+06 2.670
10 regular 5 5 405 48 2 0.580 faster 0 2.428210e+06 2.428212e+06 2.758
10 regular 5 6 406 74 2 0.475 faster 1 2.428214e+06 2.428216e+06 2.553
10 regular 5 7 407 72 2 0.504 faster 1 2.428218e+06 2.428221e+06 2.573
10 regular 5 8 408 48 2 0.275 faster 0 2.428222e+06 2.428225e+06 2.899
10 regular 5 9 409 46 2 0.323 faster 0 2.428226e+06 2.428229e+06 2.618
10 regular 5 10 410 44 2 0.271 faster 0 2.428230e+06 2.428233e+06 2.686
10 regular 5 11 411 78 2 0.426 faster 1 2.428234e+06 2.428237e+06 2.552
10 regular 5 12 412 76 2 0.522 faster 1 2.428238e+06 2.428241e+06 2.821
10 regular 5 13 413 76 2 0.377 faster 1 2.428242e+06 2.428244e+06 2.613
10 regular 5 14 414 45 2 0.274 faster 0 2.428246e+06 2.428249e+06 2.693
10 regular 5 15 415 44 2 0.251 slower 1 2.428249e+06 2.428253e+06 3.109
10 regular 5 16 416 44 2 0.400 slower 1 2.428254e+06 2.428257e+06 3.874
10 regular 5 17 417 45 2 0.339 slower 1 2.428259e+06 2.428262e+06 2.857
10 regular 5 18 418 45 2 0.511 slower 1 2.428264e+06 2.428267e+06 3.255
10 regular 5 19 419 74 2 0.581 faster 1 2.428269e+06 2.428271e+06 2.655
10 regular 5 20 420 74 2 0.524 faster 1 2.428273e+06 2.428276e+06 2.468
10 regular 5 21 421 73 2 0.168 faster 1 2.428277e+06 2.428279e+06 2.496
10 regular 5 22 422 73 2 0.146 faster 1 2.428281e+06 2.428283e+06 2.487
10 regular 5 23 423 48 2 0.434 faster 0 2.428286e+06 2.428288e+06 2.544
10 regular 5 24 424 73 2 0.267 faster 1 2.428290e+06 2.428292e+06 2.557
10 regular 5 25 425 47 2 0.217 slower 1 2.428294e+06 2.428297e+06 2.971
10 regular 5 26 426 72 2 0.198 faster 1 2.428298e+06 2.428301e+06 3.551
10 regular 5 27 427 48 2 0.575 slower 1 2.428303e+06 2.428306e+06 2.727
10 regular 5 28 428 71 2 0.207 faster 1 2.428307e+06 2.428310e+06 2.758
10 regular 5 29 429 71 2 0.106 faster 1 2.428312e+06 2.428315e+06 2.796
10 regular 5 30 430 70 2 0.146 none 2 2.428318e+06 2.428323e+06 5.000
10 regular 5 31 431 50 2 0.584 slower 1 2.428324e+06 2.428327e+06 2.822
10 regular 5 32 432 70 2 0.316 faster 1 2.428329e+06 2.428331e+06 2.532
10 regular 5 33 433 69 2 0.391 faster 1 2.428333e+06 2.428335e+06 2.519
10 regular 5 34 434 51 2 0.119 faster 0 2.428336e+06 2.428339e+06 2.502
10 regular 5 35 435 70 2 0.596 faster 1 2.428341e+06 2.428344e+06 2.901
10 regular 5 36 436 69 2 0.441 faster 1 2.428346e+06 2.428348e+06 2.668
10 regular 5 37 437 69 2 0.161 faster 1 2.428349e+06 2.428352e+06 2.591
10 regular 5 38 438 52 2 0.515 slower 1 2.428353e+06 2.428356e+06 2.823
10 regular 5 39 439 68 2 0.300 slower 0 2.428358e+06 2.428361e+06 2.719
10 regular 5 40 440 51 2 0.595 slower 1 2.428362e+06 2.428366e+06 3.547
10 regular 5 41 441 68 2 0.566 faster 1 2.428367e+06 2.428370e+06 2.901
10 regular 5 42 442 52 2 0.344 faster 0 2.428372e+06 2.428375e+06 3.565
10 regular 5 43 443 51 2 0.585 faster 0 2.428378e+06 2.428381e+06 3.103
10 regular 5 44 444 50 2 0.267 faster 0 2.428383e+06 2.428386e+06 3.444
10 regular 5 45 445 49 2 0.241 faster 0 2.428387e+06 2.428391e+06 3.156
10 regular 5 46 446 48 2 0.505 slower 1 2.428392e+06 2.428395e+06 3.212
10 regular 5 47 447 49 2 0.219 slower 1 2.428397e+06 2.428400e+06 2.771
10 regular 5 48 448 71 2 0.297 faster 1 2.428401e+06 2.428404e+06 2.735
10 regular 5 49 449 50 2 0.139 slower 1 2.428405e+06 2.428409e+06 3.832
10 regular 5 50 450 70 2 0.186 faster 1 2.428410e+06 2.428413e+06 3.091
10 regular 5 51 451 51 2 0.118 faster 0 2.428417e+06 2.428420e+06 2.913
10 regular 5 52 452 50 2 0.326 none 2 2.428426e+06 2.428431e+06 4.999
10 regular 5 53 453 70 2 0.336 faster 1 2.428432e+06 2.428434e+06 2.678
10 regular 5 54 454 70 2 0.124 faster 1 2.428436e+06 2.428439e+06 2.570
10 regular 5 55 455 51 2 0.161 faster 0 2.428440e+06 2.428443e+06 2.747
10 regular 5 56 456 50 2 0.287 faster 0 2.428445e+06 2.428447e+06 2.663
10 regular 5 57 457 49 2 0.584 slower 1 2.428450e+06 2.428453e+06 3.075
10 regular 5 58 458 49 2 0.401 faster 0 2.428455e+06 2.428458e+06 2.686
10 regular 5 59 459 72 2 0.484 faster 1 2.428459e+06 2.428464e+06 4.776
10 regular 5 60 460 71 2 0.161 faster 1 2.428465e+06 2.428468e+06 2.671
10 regular 5 61 461 49 2 0.131 slower 1 2.428470e+06 2.428472e+06 2.537
10 regular 5 62 462 50 2 0.580 slower 1 2.428474e+06 2.428476e+06 2.692
10 regular 5 63 463 70 2 0.381 faster 1 2.428478e+06 2.428481e+06 2.572
10 regular 5 64 464 51 2 0.311 faster 0 2.428483e+06 2.428485e+06 2.618
10 regular 5 65 465 70 2 0.146 none 2 2.428486e+06 2.428491e+06 5.000
10 regular 5 66 466 70 2 0.525 faster 1 2.428492e+06 2.428495e+06 3.173
10 regular 5 67 467 70 2 0.239 none 2 2.428497e+06 2.428502e+06 4.999
10 regular 5 68 468 70 2 0.576 faster 1 2.428503e+06 2.428506e+06 2.776
10 regular 5 69 469 51 2 0.117 faster 0 2.428507e+06 2.428511e+06 3.292
10 regular 5 70 470 50 2 0.533 faster 0 2.428512e+06 2.428515e+06 3.197
10 regular 5 71 471 49 2 0.517 faster 0 2.428517e+06 2.428520e+06 2.755
10 regular 5 72 472 48 2 0.263 none 2 2.428521e+06 2.428526e+06 5.000
10 regular 5 73 473 72 2 0.209 faster 1 2.428529e+06 2.428532e+06 2.836
10 regular 5 74 474 48 2 0.526 faster 0 2.428534e+06 2.428536e+06 2.506
10 regular 5 75 475 73 2 0.318 faster 1 2.428538e+06 2.428541e+06 2.696
10 regular 5 76 476 72 2 0.217 slower 0 2.428542e+06 2.428545e+06 2.643
10 regular 5 77 477 47 2 0.389 slower 1 2.428546e+06 2.428549e+06 2.915
10 regular 5 78 478 73 2 0.292 faster 1 2.428551e+06 2.428553e+06 2.736
10 regular 5 79 479 48 2 0.600 slower 1 2.428555e+06 2.428558e+06 2.686
10 regular 5 80 480 72 2 0.227 faster 1 2.428559e+06 2.428562e+06 2.893
10 regular 5 81 481 71 2 0.439 faster 1 2.428566e+06 2.428569e+06 2.676
10 regular 5 82 482 49 2 0.358 slower 1 2.428570e+06 2.428573e+06 3.265
10 regular 5 83 483 70 2 0.573 faster 1 2.428576e+06 2.428579e+06 3.070
10 regular 5 84 484 70 2 0.202 faster 1 2.428583e+06 2.428586e+06 2.613
10 regular 5 85 485 69 2 0.450 faster 1 2.428587e+06 2.428590e+06 2.743
10 regular 5 86 486 69 2 0.326 slower 0 2.428591e+06 2.428594e+06 2.802
10 regular 5 87 487 50 2 0.368 faster 0 2.428595e+06 2.428598e+06 2.921
10 regular 5 88 488 49 2 0.258 slower 1 2.428600e+06 2.428603e+06 2.736
10 regular 5 89 489 70 2 0.204 slower 0 2.428603e+06 2.428606e+06 2.862
10 regular 5 90 490 49 2 0.209 faster 0 2.428608e+06 2.428611e+06 3.290
10 regular 5 91 491 72 2 0.471 none 2 2.428612e+06 2.428617e+06 5.000
10 regular 5 92 492 48 2 0.150 slower 1 2.428619e+06 2.428622e+06 2.776
10 regular 5 93 493 48 2 0.262 slower 1 2.428623e+06 2.428626e+06 2.870
10 regular 5 94 494 71 2 0.321 faster 1 2.428628e+06 2.428630e+06 2.712
10 regular 5 95 495 49 2 0.271 faster 0 2.428632e+06 2.428635e+06 3.372
10 regular 5 96 496 72 2 0.442 faster 1 2.428636e+06 2.428639e+06 2.575
10 regular 5 97 497 71 2 0.413 slower 0 2.428643e+06 2.428646e+06 2.934
10 regular 5 98 498 48 2 0.474 slower 1 2.428647e+06 2.428651e+06 4.551
10 regular 5 99 499 72 2 0.553 faster 1 2.428652e+06 2.428655e+06 2.818
10 regular 5 100 500 49 2 0.586 slower 1 2.428657e+06 2.428660e+06 2.738
10 irregular 6 1 501 71 1.500000e+00 0.373 faster 1 2.428705e+06 2.428707e+06 2.245
10 irregular 6 2 502 50 2 0.384 slower 1 2.428709e+06 2.428712e+06 3.382
10 irregular 6 3 503 50 2 0.139 slower 1 2.428714e+06 2.428717e+06 2.989
10 irregular 6 4 504 69 3 0.373 slower 0 2.428719e+06 2.428723e+06 4.493
10 irregular 6 5 505 50 2 0.568 slower 1 2.428726e+06 2.428729e+06 3.150
10 irregular 6 6 506 50 1.500000e+00 0.338 slower 1 2.428730e+06 2.428734e+06 3.822
10 irregular 6 7 507 51 1.500000e+00 0.245 slower 1 2.428735e+06 2.428738e+06 2.556
10 irregular 6 8 508 69 1 0.143 faster 1 2.428739e+06 2.428741e+06 1.642
10 irregular 6 9 509 52 2.500000e+00 0.477 slower 1 2.428742e+06 2.428745e+06 3.298
10 irregular 6 10 510 52 2 0.268 slower 1 2.428747e+06 2.428749e+06 2.666
10 irregular 6 11 511 53 2 0.436 slower 1 2.428751e+06 2.428753e+06 2.637
10 irregular 6 12 512 67 2.500000e+00 0.272 slower 0 2.428756e+06 2.428759e+06 3.345
10 irregular 6 13 513 68 1.500000e+00 0.172 slower 0 2.428761e+06 2.428764e+06 2.779
10 irregular 6 14 514 69 2.500000e+00 0.251 faster 1 2.428765e+06 2.428768e+06 3.667
10 irregular 6 15 515 52 3 0.108 slower 1 2.428770e+06 2.428774e+06 3.845
10 irregular 6 16 516 68 2 0.335 slower 0 2.428776e+06 2.428778e+06 2.961
10 irregular 6 17 517 69 1.500000e+00 0.296 slower 0 2.428780e+06 2.428784e+06 3.701
10 irregular 6 18 518 70 3 0.402 faster 1 2.428785e+06 2.428790e+06 4.939
10 irregular 6 19 519 69 3 0.363 faster 1 2.428791e+06 2.428795e+06 3.914
10 irregular 6 20 520 51 1 0.302 faster 0 2.428797e+06 2.428799e+06 2.569
10 irregular 6 21 521 70 2 0.119 faster 1 2.428800e+06 2.428804e+06 3.418
10 irregular 6 22 522 69 1 0.156 slower 0 2.428805e+06 2.428807e+06 1.746
10 irregular 6 23 523 50 2 0.292 slower 1 2.428808e+06 2.428811e+06 2.719
10 irregular 6 24 524 70 2.500000e+00 0.274 faster 1 2.428811e+06 2.428815e+06 3.106
10 irregular 6 25 525 51 1 0.496 slower 1 2.428816e+06 2.428818e+06 1.689
10 irregular 6 26 526 51 2.500000e+00 0.321 slower 1 2.428820e+06 2.428824e+06 3.171
10 irregular 6 27 527 52 1.500000e+00 0.246 slower 1 2.428826e+06 2.428829e+06 2.343
10 irregular 6 28 528 52 3 0.512 faster 0 2.428830e+06 2.428834e+06 4.181
10 irregular 6 29 529 51 1.500000e+00 0.448 faster 0 2.428836e+06 2.428838e+06 2.196
10 irregular 6 30 530 50 1 0.126 faster 0 2.428839e+06 2.428841e+06 1.666
10 irregular 6 31 531 71 2 0.533 faster 1 2.428843e+06 2.428845e+06 2.650
10 irregular 6 32 532 70 2 0.466 faster 1 2.428847e+06 2.428849e+06 2.616
10 irregular 6 33 533 50 3 0.480 slower 1 2.428851e+06 2.428855e+06 3.650
10 irregular 6 34 534 51 1.500000e+00 0.369 slower 1 2.428856e+06 2.428859e+06 3.242
10 irregular 6 35 535 69 2.500000e+00 0.426 faster 1 2.428860e+06 2.428864e+06 3.602
10 irregular 6 36 536 52 2.500000e+00 0.496 slower 1 2.428867e+06 2.428870e+06 3.260
10 irregular 6 37 537 68 1.500000e+00 0.562 faster 1 2.428872e+06 2.428874e+06 2.480
10 irregular 6 38 538 53 1.500000e+00 0.553 slower 1 2.428876e+06 2.428879e+06 3.384
10 irregular 6 39 539 67 1 0.514 faster 1 2.428881e+06 2.428883e+06 1.794
10 irregular 6 40 540 54 1.500000e+00 0.589 faster 0 2.428884e+06 2.428886e+06 1.987
10 irregular 6 41 541 53 3 0.447 slower 1 2.428888e+06 2.428891e+06 3.628
10 irregular 6 42 542 67 2 0.582 faster 1 2.428893e+06 2.428896e+06 2.958
10 irregular 6 43 543 54 1.500000e+00 0.459 faster 0 2.428898e+06 2.428900e+06 2.133
10 irregular 6 44 544 67 3 0.501 faster 1 2.428901e+06 2.428906e+06 4.169
10 irregular 6 45 545 67 1.500000e+00 0.416 faster 1 2.428907e+06 2.428909e+06 2.128
10 irregular 6 46 546 66 3 0.273 slower 0 2.428910e+06 2.428915e+06 4.436
10 irregular 6 47 547 67 1 0.346 faster 1 2.428918e+06 2.428919e+06 1.692
10 irregular 6 48 548 53 3 0.180 slower 1 2.428921e+06 2.428925e+06 3.734
10 irregular 6 49 549 66 2.500000e+00 0.329 faster 1 2.428927e+06 2.428931e+06 3.921
10 irregular 6 50 550 66 1 0.187 faster 1 2.428932e+06 2.428935e+06 2.800
10 irregular 6 51 551 55 3 0.287 faster 0 2.428936e+06 2.428940e+06 3.748
10 irregular 6 52 552 54 1 0.293 slower 1 2.428941e+06 2.428943e+06 2.627
10 irregular 6 53 553 54 2.500000e+00 0.406 slower 1 2.428945e+06 2.428948e+06 3.153
10 irregular 6 54 554 65 1.500000e+00 0.102 faster 1 2.428950e+06 2.428953e+06 2.513
10 irregular 6 55 555 55 2.500000e+00 0.382 faster 0 2.428954e+06 2.428958e+06 4.299
10 irregular 6 56 556 66 1 0.276 faster 1 2.428960e+06 2.428962e+06 1.845
10 irregular 6 57 557 55 1 0.446 faster 0 2.428964e+06 2.428966e+06 1.832
10 irregular 6 58 558 54 1 0.235 faster 0 2.428966e+06 2.428968e+06 1.950
10 irregular 6 59 559 53 2.500000e+00 0.238 faster 0 2.428970e+06 2.428973e+06 3.362
10 irregular 6 60 560 52 2.500000e+00 0.383 slower 1 2.428974e+06 2.428978e+06 3.087
10 irregular 6 61 561 68 3 0.521 slower 0 2.428980e+06 2.428984e+06 4.223
10 irregular 6 62 562 69 1 0.487 slower 0 2.428987e+06 2.428989e+06 2.582
10 irregular 6 63 563 50 3 0.364 faster 0 2.428991e+06 2.428995e+06 4.122
10 irregular 6 64 564 71 1 0.498 faster 1 2.428997e+06 2.428998e+06 1.835
10 irregular 6 65 565 50 1.500000e+00 0.521 slower 1 2.429000e+06 2.429002e+06 2.361
10 irregular 6 66 566 70 3 0.598 faster 1 2.429004e+06 2.429007e+06 3.722
10 irregular 6 67 567 51 2 0.368 slower 1 2.429009e+06 2.429012e+06 2.717
10 irregular 6 68 568 51 1 0.418 slower 1 2.429014e+06 2.429017e+06 3.343
10 irregular 6 69 569 68 1 0.541 none 2 2.429018e+06 2.429022e+06 4.000
10 irregular 6 70 570 68 1.500000e+00 0.118 faster 1 2.429023e+06 2.429026e+06 2.688
10 irregular 6 71 571 68 1.500000e+00 0.438 faster 1 2.429029e+06 2.429031e+06 2.347
10 irregular 6 72 572 67 2.500000e+00 0.129 slower 0 2.429032e+06 2.429036e+06 3.577
10 irregular 6 73 573 68 2 0.143 faster 1 2.429038e+06 2.429041e+06 2.798
10 irregular 6 74 574 52 3 0.177 slower 1 2.429043e+06 2.429046e+06 3.760
10 irregular 6 75 575 53 1 0.495 faster 0 2.429048e+06 2.429051e+06 2.626
10 irregular 6 76 576 52 2 0.575 none 2 2.429053e+06 2.429058e+06 5.000
10 irregular 6 77 577 68 1 0.349 slower 0 2.429060e+06 2.429062e+06 2.075
10 irregular 6 78 578 69 2.500000e+00 0.230 faster 1 2.429063e+06 2.429067e+06 3.626
10 irregular 6 79 579 69 2.500000e+00 0.596 slower 0 2.429069e+06 2.429073e+06 3.984
10 irregular 6 80 580 70 2 0.102 faster 1 2.429074e+06 2.429077e+06 2.785
10 irregular 6 81 581 69 2.500000e+00 0.340 faster 1 2.429080e+06 2.429083e+06 3.003
10 irregular 6 82 582 69 2 0.436 faster 1 2.429085e+06 2.429087e+06 2.766
10 irregular 6 83 583 52 2.500000e+00 0.296 faster 0 2.429090e+06 2.429093e+06 3.112
10 irregular 6 84 584 51 2.500000e+00 0.210 faster 0 2.429095e+06 2.429098e+06 3.107
10 irregular 6 85 585 50 2.500000e+00 0.418 slower 1 2.429100e+06 2.429103e+06 3.614
10 irregular 6 86 586 50 2 0.430 slower 1 2.429105e+06 2.429107e+06 2.729
10 irregular 6 87 587 69 3 0.408 slower 0 2.429109e+06 2.429114e+06 4.587
10 irregular 6 88 588 50 2 0.132 faster 0 2.429115e+06 2.429118e+06 2.839
10 irregular 6 89 589 49 1.500000e+00 0.496 faster 0 2.429119e+06 2.429121e+06 2.318
10 irregular 6 90 590 72 3 0.389 faster 1 2.429122e+06 2.429126e+06 4.096
10 irregular 6 91 591 72 2 0.168 faster 1 2.429127e+06 2.429130e+06 2.752
10 irregular 6 92 592 71 2.500000e+00 0.597 slower 0 2.429132e+06 2.429136e+06 4.214
10 irregular 6 93 593 72 3 0.190 faster 1 2.429138e+06 2.429142e+06 4.329
10 irregular 6 94 594 48 3 0.524 slower 1 2.429145e+06 2.429149e+06 3.731
10 irregular 6 95 595 49 3 0.485 slower 1 2.429151e+06 2.429154e+06 3.638
10 irregular 6 96 596 71 2 0.248 faster 1 2.429156e+06 2.429159e+06 3.401
10 irregular 6 97 597 70 1.500000e+00 0.220 faster 1 2.429160e+06 2.429163e+06 2.442
10 irregular 6 98 598 70 1.500000e+00 0.113 faster 1 2.429164e+06 2.429166e+06 2.040
10 irregular 6 99 599 51 1 0.123 faster 0 2.429167e+06 2.429170e+06 2.296
10 irregular 6 100 600 50 1 0.501 slower 1 2.429172e+06 2.429174e+06 1.675
10 regular 7 1 601 70 1.500000e+00 0.217 faster 1 2.429271e+06 2.429273e+06 2.230
10 regular 7 2 602 69 1.500000e+00 0.238 faster 1 2.429277e+06 2.429279e+06 2.080
10 regular 7 3 603 51 1.500000e+00 0.378 faster 0 2.429281e+06 2.429283e+06 2.724
10 regular 7 4 604 70 1.500000e+00 0.130 faster 1 2.429284e+06 2.429287e+06 2.369
10 regular 7 5 605 69 1.500000e+00 0.196 faster 1 2.429288e+06 2.429290e+06 2.132
10 regular 7 6 606 69 1.500000e+00 0.519 faster 1 2.429292e+06 2.429295e+06 2.882
10 regular 7 7 607 68 1.500000e+00 0.346 faster 1 2.429299e+06 2.429301e+06 2.146
10 regular 7 8 608 52 1.500000e+00 0.579 faster 0 2.429303e+06 2.429305e+06 2.301
10 regular 7 9 609 51 1.500000e+00 0.111 none 2 2.429308e+06 2.429313e+06 4.499
10 regular 7 10 610 69 1.500000e+00 0.584 faster 1 2.429314e+06 2.429316e+06 2.361
10 regular 7 11 611 68 1.500000e+00 0.379 faster 1 2.429320e+06 2.429322e+06 2.285
10 regular 7 12 612 52 1.500000e+00 0.123 faster 0 2.429324e+06 2.429326e+06 2.009
10 regular 7 13 613 51 1.500000e+00 0.397 slower 1 2.429328e+06 2.429330e+06 2.447
10 regular 7 14 614 52 1.500000e+00 0.527 faster 0 2.429332e+06 2.429335e+06 2.180
10 regular 7 15 615 51 1.500000e+00 0.179 slower 1 2.429336e+06 2.429338e+06 2.192
10 regular 7 16 616 69 1.500000e+00 0.335 faster 1 2.429339e+06 2.429342e+06 2.183
10 regular 7 17 617 52 1.500000e+00 0.274 faster 0 2.429346e+06 2.429348e+06 2.272
10 regular 7 18 618 69 1.500000e+00 0.231 faster 1 2.429350e+06 2.429352e+06 2.507
10 regular 7 19 619 69 1.500000e+00 0.420 faster 1 2.429355e+06 2.429357e+06 2.063
10 regular 7 20 620 68 1.500000e+00 0.341 faster 1 2.429358e+06 2.429360e+06 2.180
10 regular 7 21 621 68 1.500000e+00 0.507 faster 1 2.429362e+06 2.429364e+06 2.274
10 regular 7 22 622 53 1.500000e+00 0.148 faster 0 2.429367e+06 2.429369e+06 2.094
10 regular 7 23 623 68 1.500000e+00 0.258 faster 1 2.429372e+06 2.429375e+06 2.258
10 regular 7 24 624 52 1.500000e+00 0.107 slower 1 2.429376e+06 2.429378e+06 2.174
10 regular 7 25 625 53 1.500000e+00 0.276 faster 0 2.429379e+06 2.429382e+06 2.177
10 regular 7 26 626 52 1.500000e+00 0.136 faster 0 2.429383e+06 2.429385e+06 2.245
10 regular 7 27 627 51 1.500000e+00 0.450 faster 0 2.429387e+06 2.429389e+06 2.284
10 regular 7 28 628 70 1.500000e+00 0.290 faster 1 2.429390e+06 2.429392e+06 2.122
10 regular 7 29 629 70 1.500000e+00 0.111 faster 1 2.429394e+06 2.429396e+06 2.082
10 regular 7 30 630 69 1.500000e+00 0.532 faster 1 2.429397e+06 2.429399e+06 1.946
10 regular 7 31 631 69 1.500000e+00 0.303 faster 1 2.429402e+06 2.429404e+06 2.029
10 regular 7 32 632 52 1.500000e+00 0.393 faster 0 2.429405e+06 2.429407e+06 2.072
10 regular 7 33 633 51 1.500000e+00 0.117 faster 0 2.429409e+06 2.429411e+06 2.135
10 regular 7 34 634 50 1.500000e+00 0.167 faster 0 2.429413e+06 2.429415e+06 2.119
10 regular 7 35 635 49 1.500000e+00 0.435 slower 1 2.429416e+06 2.429418e+06 2.271
10 regular 7 36 636 49 1.500000e+00 0.429 slower 1 2.429420e+06 2.429422e+06 2.230
10 regular 7 37 637 70 1.500000e+00 0.261 faster 1 2.429424e+06 2.429426e+06 2.161
10 regular 7 38 638 70 1.500000e+00 0.278 none 2 2.429428e+06 2.429432e+06 4.499
10 regular 7 39 639 50 1.500000e+00 0.185 slower 1 2.429435e+06 2.429437e+06 2.329
10 regular 7 40 640 69 1.500000e+00 0.270 faster 1 2.429438e+06 2.429441e+06 2.704
10 regular 7 41 641 51 1.500000e+00 0.309 faster 0 2.429442e+06 2.429444e+06 2.216
10 regular 7 42 642 50 1.500000e+00 0.470 slower 1 2.429446e+06 2.429449e+06 2.672
10 regular 7 43 643 69 1.500000e+00 0.129 faster 1 2.429450e+06 2.429452e+06 2.176
10 regular 7 44 644 69 1.500000e+00 0.111 faster 1 2.429453e+06 2.429455e+06 2.064
10 regular 7 45 645 68 1.500000e+00 0.379 slower 0 2.429457e+06 2.429459e+06 2.385
10 regular 7 46 646 51 1.500000e+00 0.547 faster 0 2.429461e+06 2.429463e+06 2.362
10 regular 7 47 647 50 1.500000e+00 0.451 faster 0 2.429465e+06 2.429467e+06 2.316
10 regular 7 48 648 49 1.500000e+00 0.175 faster 0 2.429468e+06 2.429471e+06 2.598
10 regular 7 49 649 48 1.500000e+00 0.497 slower 1 2.429473e+06 2.429475e+06 2.235
10 regular 7 50 650 48 1.500000e+00 0.141 faster 0 2.429476e+06 2.429478e+06 2.056
10 regular 7 51 651 47 1.500000e+00 0.429 faster 0 2.429480e+06 2.429482e+06 2.218
10 regular 7 52 652 74 1.500000e+00 0.147 faster 1 2.429484e+06 2.429486e+06 2.043
10 regular 7 53 653 47 1.500000e+00 0.364 faster 0 2.429487e+06 2.429490e+06 3.187
10 regular 7 54 654 74 1.500000e+00 0.241 none 2 2.429492e+06 2.429496e+06 4.499
10 regular 7 55 655 74 1.500000e+00 0.190 slower 0 2.429497e+06 2.429499e+06 2.317
10 regular 7 56 656 75 1.500000e+00 0.575 faster 1 2.429501e+06 2.429503e+06 2.043
10 regular 7 57 657 75 1.500000e+00 0.113 faster 1 2.429504e+06 2.429507e+06 2.414
10 regular 7 58 658 74 1.500000e+00 0.204 faster 1 2.429509e+06 2.429511e+06 2.062
10 regular 7 59 659 46 1.500000e+00 0.286 slower 1 2.429512e+06 2.429514e+06 2.122
10 regular 7 60 660 47 1.500000e+00 0.210 slower 1 2.429516e+06 2.429518e+06 2.031
10 regular 7 61 661 47 1.500000e+00 0.495 slower 1 2.429520e+06 2.429522e+06 2.597
10 regular 7 62 662 48 1.500000e+00 0.228 faster 0 2.429523e+06 2.429526e+06 2.363
10 regular 7 63 663 47 1.500000e+00 0.512 faster 0 2.429527e+06 2.429530e+06 2.285
10 regular 7 64 664 74 1.500000e+00 0.260 faster 1 2.429531e+06 2.429533e+06 2.097
10 regular 7 65 665 74 1.500000e+00 0.393 faster 1 2.429535e+06 2.429537e+06 2.153
10 regular 7 66 666 47 1.500000e+00 0.547 faster 0 2.429538e+06 2.429540e+06 1.939
10 regular 7 67 667 46 1.500000e+00 0.504 faster 0 2.429542e+06 2.429544e+06 2.108
10 regular 7 68 668 45 1.500000e+00 0.389 slower 1 2.429546e+06 2.429548e+06 2.315
10 regular 7 69 669 45 1.500000e+00 0.500 slower 1 2.429550e+06 2.429552e+06 2.379
10 regular 7 70 670 46 1.500000e+00 0.463 faster 0 2.429554e+06 2.429557e+06 2.984
10 regular 7 71 671 75 1.500000e+00 0.581 faster 1 2.429558e+06 2.429561e+06 2.081
10 regular 7 72 672 75 1.500000e+00 0.593 faster 1 2.429562e+06 2.429565e+06 2.784
10 regular 7 73 673 46 1.500000e+00 0.318 faster 0 2.429566e+06 2.429569e+06 3.049
10 regular 7 74 674 75 1.500000e+00 0.233 faster 1 2.429570e+06 2.429572e+06 2.001
10 regular 7 75 675 75 1.500000e+00 0.324 faster 1 2.429574e+06 2.429576e+06 2.020
10 regular 7 76 676 46 1.500000e+00 0.545 slower 1 2.429577e+06 2.429580e+06 2.118
10 regular 7 77 677 74 1.500000e+00 0.228 faster 1 2.429581e+06 2.429583e+06 2.107
10 regular 7 78 678 47 1.500000e+00 0.211 slower 1 2.429585e+06 2.429587e+06 2.233
10 regular 7 79 679 73 1.500000e+00 0.279 faster 1 2.429589e+06 2.429592e+06 2.109
10 regular 7 80 680 72 1.500000e+00 0.142 faster 1 2.429593e+06 2.429595e+06 2.044
10 regular 7 81 681 48 1.500000e+00 0.528 faster 0 2.429596e+06 2.429598e+06 2.393
10 regular 7 82 682 73 1.500000e+00 0.413 faster 1 2.429604e+06 2.429606e+06 2.084
10 regular 7 83 683 48 1.500000e+00 0.517 faster 0 2.429608e+06 2.429610e+06 2.435
10 regular 7 84 684 73 1.500000e+00 0.404 faster 1 2.429612e+06 2.429615e+06 2.298
10 regular 7 85 685 47 1.500000e+00 0.325 slower 1 2.429616e+06 2.429620e+06 3.647
10 regular 7 86 686 72 1.500000e+00 0.346 faster 1 2.429621e+06 2.429623e+06 2.207
10 regular 7 87 687 72 1.500000e+00 0.397 faster 1 2.429625e+06 2.429627e+06 1.920
10 regular 7 88 688 49 1.500000e+00 0.344 faster 0 2.429628e+06 2.429631e+06 2.290
10 regular 7 89 689 48 1.500000e+00 0.138 faster 0 2.429632e+06 2.429635e+06 2.265
10 regular 7 90 690 73 1.500000e+00 0.449 faster 1 2.429636e+06 2.429638e+06 2.090
10 regular 7 91 691 73 1.500000e+00 0.111 faster 1 2.429639e+06 2.429642e+06 2.197
10 regular 7 92 692 48 1.500000e+00 0.288 faster 0 2.429643e+06 2.429645e+06 2.221
10 regular 7 93 693 47 1.500000e+00 0.325 faster 0 2.429647e+06 2.429649e+06 2.201
10 regular 7 94 694 46 1.500000e+00 0.584 faster 0 2.429650e+06 2.429653e+06 2.289
10 regular 7 95 695 75 1.500000e+00 0.354 faster 1 2.429655e+06 2.429657e+06 2.110
10 regular 7 96 696 75 1.500000e+00 0.192 faster 1 2.429658e+06 2.429660e+06 2.131
10 regular 7 97 697 46 1.500000e+00 0.481 faster 0 2.429661e+06 2.429663e+06 2.275
10 regular 7 98 698 75 1.500000e+00 0.425 faster 1 2.429664e+06 2.429666e+06 2.053
10 regular 7 99 699 75 1.500000e+00 0.204 faster 1 2.429668e+06 2.429670e+06 2.278
10 regular 7 100 700 74 1.500000e+00 0.123 faster 1 2.429671e+06 2.429673e+06 2.015
10 irregular 8 1 701 74 1 0.218 faster 1 2.429706e+06 2.429707e+06 1.634
10 irregular 8 2 702 73 2.500000e+00 0.545 slower 0 2.429709e+06 2.429712e+06 3.449
10 irregular 8 3 703 74 2 0.389 faster 1 2.429714e+06 2.429717e+06 2.518
10 irregular 8 4 704 74 2 0.312 faster 1 2.429723e+06 2.429725e+06 2.562
10 irregular 8 5 705 73 2.500000e+00 0.493 slower 0 2.429728e+06 2.429732e+06 3.493
10 irregular 8 6 706 74 1 0.266 faster 1 2.429734e+06 2.429736e+06 1.782
10 irregular 8 7 707 46 3 0.136 slower 1 2.429737e+06 2.429741e+06 3.762
10 irregular 8 8 708 47 1.500000e+00 0.582 slower 1 2.429743e+06 2.429745e+06 2.413
10 irregular 8 9 709 73 3 0.236 faster 1 2.429747e+06 2.429750e+06 3.615
10 irregular 8 10 710 48 2.500000e+00 0.364 slower 1 2.429751e+06 2.429755e+06 3.582
10 irregular 8 11 711 72 2 0.142 faster 1 2.429756e+06 2.429759e+06 2.578
10 irregular 8 12 712 71 1.500000e+00 0.288 faster 1 2.429760e+06 2.429762e+06 2.202
10 irregular 8 13 713 49 2 0.239 faster 0 2.429763e+06 2.429766e+06 2.699
10 irregular 8 14 714 48 1 0.244 slower 1 2.429767e+06 2.429769e+06 1.752
10 irregular 8 15 715 71 1.500000e+00 0.251 slower 0 2.429771e+06 2.429773e+06 2.245
10 irregular 8 16 716 72 1.500000e+00 0.105 faster 1 2.429775e+06 2.429778e+06 2.979
10 irregular 8 17 717 72 3 0.396 slower 0 2.429779e+06 2.429784e+06 4.182
10 irregular 8 18 718 47 3 0.486 slower 1 2.429785e+06 2.429789e+06 3.602
10 irregular 8 19 719 48 1.500000e+00 0.290 faster 0 2.429790e+06 2.429793e+06 2.859
10 irregular 8 20 720 47 3 0.201 slower 1 2.429794e+06 2.429798e+06 3.766
10 irregular 8 21 721 73 2.500000e+00 0.327 faster 1 2.429799e+06 2.429802e+06 3.127
10 irregular 8 22 722 72 1 0.314 faster 1 2.429803e+06 2.429806e+06 2.547
10 irregular 8 23 723 72 1 0.367 faster 1 2.429807e+06 2.429809e+06 1.994
10 irregular 8 24 724 49 2 0.314 slower 1 2.429811e+06 2.429814e+06 2.792
10 irregular 8 25 725 49 2 0.113 slower 1 2.429815e+06 2.429818e+06 2.923
10 irregular 8 26 726 70 2 0.155 slower 0 2.429819e+06 2.429822e+06 3.123
10 irregular 8 27 727 49 3 0.226 slower 1 2.429823e+06 2.429827e+06 3.750
10 irregular 8 28 728 71 1.500000e+00 0.113 faster 1 2.429829e+06 2.429831e+06 2.419
10 irregular 8 29 729 50 2.500000e+00 0.150 slower 1 2.429833e+06 2.429831e+06 -1.762
10 irregular 8 30 730 70 3 0.257 slower 0 2.429837e+06 2.429841e+06 3.726
10 irregular 8 31 731 71 3 0.580 faster 1 2.429844e+06 2.429847e+06 3.591
10 irregular 8 32 732 50 1.500000e+00 0.368 faster 0 2.429849e+06 2.429851e+06 1.949
10 irregular 8 33 733 49 1 0.401 slower 1 2.429853e+06 2.429855e+06 1.656
10 irregular 8 34 734 71 2.500000e+00 0.425 faster 1 2.429856e+06 2.429860e+06 3.620
10 irregular 8 35 735 50 2 0.340 slower 1 2.429861e+06 2.429864e+06 2.720
10 irregular 8 36 736 70 2.500000e+00 0.532 faster 1 2.429865e+06 2.429869e+06 3.301
10 irregular 8 37 737 69 1.500000e+00 0.420 slower 0 2.429871e+06 2.429873e+06 2.817
10 irregular 8 38 738 70 1 0.599 faster 1 2.429875e+06 2.429877e+06 1.831
10 irregular 8 39 739 70 2 0.499 none 2 2.429879e+06 2.429884e+06 4.999
10 irregular 8 40 740 70 3 0.595 slower 0 2.429886e+06 2.429890e+06 3.807
10 irregular 8 41 741 49 1.500000e+00 0.234 faster 0 2.429892e+06 2.429895e+06 2.059
10 irregular 8 42 742 48 1 0.166 none 2 2.429896e+06 2.429900e+06 4.000
10 irregular 8 43 743 72 2.500000e+00 0.460 slower 0 2.429902e+06 2.429905e+06 3.386
10 irregular 8 44 744 47 1.500000e+00 0.253 slower 1 2.429906e+06 2.429909e+06 2.706
10 irregular 8 45 745 72 3 0.387 faster 1 2.429910e+06 2.429914e+06 3.548
10 irregular 8 46 746 48 1.500000e+00 0.182 slower 1 2.429915e+06 2.429918e+06 2.380
10 irregular 8 47 747 49 2 0.226 faster 0 2.429919e+06 2.429921e+06 2.500
10 irregular 8 48 748 48 2.500000e+00 0.266 slower 1 2.429924e+06 2.429927e+06 3.598
10 irregular 8 49 749 72 2.500000e+00 0.338 faster 1 2.429929e+06 2.429932e+06 3.131
10 irregular 8 50 750 71 1 0.430 faster 1 2.429933e+06 2.429935e+06 1.847
10 irregular 8 51 751 49 3 0.308 slower 1 2.429937e+06 2.429941e+06 3.817
10 irregular 8 52 752 50 2.500000e+00 0.271 faster 0 2.429942e+06 2.429946e+06 3.632
10 irregular 8 53 753 49 2.500000e+00 0.226 slower 1 2.429947e+06 2.429950e+06 3.491
10 irregular 8 54 754 49 1.500000e+00 0.102 faster 0 2.429952e+06 2.429955e+06 3.051
10 irregular 8 55 755 48 2.500000e+00 0.275 slower 1 2.429956e+06 2.429959e+06 3.212
10 irregular 8 56 756 49 1.500000e+00 0.389 faster 0 2.429960e+06 2.429963e+06 2.826
10 irregular 8 57 757 72 3 0.434 faster 1 2.429964e+06 2.429968e+06 3.839
10 irregular 8 58 758 48 1 0.588 slower 1 2.429970e+06 2.429972e+06 1.711
10 irregular 8 59 759 71 3 0.265 faster 1 2.429973e+06 2.429977e+06 4.198
10 irregular 8 60 760 49 2 0.571 slower 1 2.429979e+06 2.429983e+06 3.751
10 irregular 8 61 761 50 2 0.141 faster 0 2.429984e+06 2.429987e+06 2.684
10 irregular 8 62 762 49 2.500000e+00 0.396 faster 0 2.429988e+06 2.429991e+06 3.149
10 irregular 8 63 763 72 1.500000e+00 0.214 slower 0 2.429993e+06 2.429997e+06 4.327
10 irregular 8 64 764 47 1 0.585 faster 0 2.429998e+06 2.430000e+06 1.722
10 irregular 8 65 765 74 1.500000e+00 0.396 faster 1 2.430001e+06 2.430004e+06 2.398
10 irregular 8 66 766 46 2 0.358 slower 1 2.430005e+06 2.430008e+06 2.590
10 irregular 8 67 767 73 3 0.591 faster 1 2.430009e+06 2.430013e+06 3.968
10 irregular 8 68 768 73 2 0.248 faster 1 2.430017e+06 2.430020e+06 2.660
10 irregular 8 69 769 48 1 0.216 faster 0 2.430021e+06 2.430023e+06 1.915
10 irregular 8 70 770 73 1 0.247 faster 1 2.430024e+06 2.430026e+06 1.912
10 irregular 8 71 771 47 1.500000e+00 0.156 slower 1 2.430027e+06 2.430030e+06 2.862
10 irregular 8 72 772 72 2 0.366 faster 1 2.430032e+06 2.430034e+06 2.686
10 irregular 8 73 773 48 3 0.165 slower 1 2.430036e+06 2.430039e+06 3.628
10 irregular 8 74 774 71 1.500000e+00 0.596 faster 1 2.430041e+06 2.430043e+06 2.194
10 irregular 8 75 775 71 1.500000e+00 0.428 faster 1 2.430045e+06 2.430047e+06 2.406
10 irregular 8 76 776 70 2.500000e+00 0.538 faster 1 2.430049e+06 2.430052e+06 3.780
10 irregular 8 77 777 70 1 0.195 none 2 2.430053e+06 2.430057e+06 4.000
10 irregular 8 78 778 50 2.500000e+00 0.401 slower 1 2.430059e+06 2.430062e+06 3.404
10 irregular 8 79 779 69 1 0.106 faster 1 2.430064e+06 2.430066e+06 1.790
10 irregular 8 80 780 51 1 0.518 faster 0 2.430067e+06 2.430069e+06 2.211
10 irregular 8 81 781 70 3 0.498 slower 0 2.430071e+06 2.430075e+06 3.974
10 irregular 8 82 782 49 1 0.123 faster 0 2.430093e+06 2.430094e+06 1.679
10 irregular 8 83 783 48 2 0.414 slower 1 2.430096e+06 2.430099e+06 3.127
10 irregular 8 84 784 49 1 0.400 faster 0 2.430100e+06 2.430102e+06 2.076
10 irregular 8 85 785 48 2.500000e+00 0.402 slower 1 2.430103e+06 2.430106e+06 3.260
10 irregular 8 86 786 48 1 0.257 faster 0 2.430108e+06 2.430110e+06 2.064
10 irregular 8 87 787 73 1.500000e+00 0.133 faster 1 2.430111e+06 2.430113e+06 2.137
10 irregular 8 88 788 72 2 0.586 faster 1 2.430115e+06 2.430117e+06 2.669
10 irregular 8 89 789 48 3 0.279 slower 1 2.430119e+06 2.430123e+06 4.441
10 irregular 8 90 790 49 2.500000e+00 0.504 faster 0 2.430124e+06 2.430128e+06 3.900
10 irregular 8 91 791 48 1.500000e+00 0.568 slower 1 2.430130e+06 2.430132e+06 2.283
10 irregular 8 92 792 72 2.500000e+00 0.284 faster 1 2.430134e+06 2.430137e+06 3.321
10 irregular 8 93 793 49 3 0.208 none 2 2.430138e+06 2.430144e+06 5.999
10 irregular 8 94 794 71 1 0.488 faster 1 2.430145e+06 2.430147e+06 2.412
10 irregular 8 95 795 49 2 0.260 slower 1 2.430149e+06 2.430152e+06 2.811
10 irregular 8 96 796 50 3 0.598 faster 0 2.430153e+06 2.430157e+06 3.970
10 irregular 8 97 797 71 2 0.448 faster 1 2.430159e+06 2.430162e+06 2.638
10 irregular 8 98 798 71 2.500000e+00 0.267 faster 1 2.430163e+06 2.430166e+06 3.095
10 irregular 8 99 799 50 3 0.536 faster 0 2.430168e+06 2.430172e+06 4.498
10 irregular 8 100 800 71 2 0.308 faster 1 2.430174e+06 2.430176e+06 2.636
10 regular 9 1 801 49 3 0.489 slower 1 2.430258e+06 2.430263e+06 4.754
10 regular 9 2 802 70 3 0.462 faster 1 2.430265e+06 2.430269e+06 3.795
10 regular 9 3 803 70 3 0.365 faster 1 2.430274e+06 2.430278e+06 3.731
10 regular 9 4 804 51 3 0.242 faster 0 2.430282e+06 2.430285e+06 3.652
10 regular 9 5 805 50 3 0.164 faster 0 2.430288e+06 2.430292e+06 4.092
10 regular 9 6 806 71 3 0.560 faster 1 2.430294e+06 2.430298e+06 3.681
10 regular 9 7 807 71 3 0.309 faster 1 2.430300e+06 2.430304e+06 4.190
10 regular 9 8 808 50 3 0.505 faster 0 2.430306e+06 2.430310e+06 3.692
10 regular 9 9 809 49 3 0.558 faster 0 2.430314e+06 2.430318e+06 3.810
10 regular 9 10 810 48 3 0.263 faster 0 2.430319e+06 2.430323e+06 3.839
10 regular 9 11 811 73 3 0.156 faster 1 2.430326e+06 2.430329e+06 3.848
10 regular 9 12 812 73 3 0.463 faster 1 2.430330e+06 2.430334e+06 3.618
10 regular 9 13 813 48 3 0.143 faster 0 2.430335e+06 2.430339e+06 4.010
10 regular 9 14 814 47 3 0.391 slower 1 2.430344e+06 2.430348e+06 4.017
10 regular 9 15 815 73 3 0.473 faster 1 2.430349e+06 2.430353e+06 3.638
10 regular 9 16 816 72 3 0.468 faster 1 2.430354e+06 2.430358e+06 3.650
10 regular 9 17 817 48 3 0.554 faster 0 2.430362e+06 2.430366e+06 3.669
10 regular 9 18 818 47 3 0.165 slower 1 2.430371e+06 2.430375e+06 4.010
10 regular 9 19 819 72 3 0.231 faster 1 2.430378e+06 2.430381e+06 3.519
10 regular 9 20 820 72 3 0.317 faster 1 2.430384e+06 2.430387e+06 3.570
10 regular 9 21 821 71 3 0.523 faster 1 2.430390e+06 2.430394e+06 3.514
10 regular 9 22 822 71 3 0.261 faster 1 2.430395e+06 2.430399e+06 3.642
10 regular 9 23 823 70 3 0.493 faster 1 2.430400e+06 2.430404e+06 3.582
10 regular 9 24 824 70 3 0.571 faster 1 2.430405e+06 2.430409e+06 3.552
10 regular 9 25 825 69 3 0.505 faster 1 2.430411e+06 2.430415e+06 3.667
10 regular 9 26 826 51 3 0.528 slower 1 2.430418e+06 2.430422e+06 3.929
10 regular 9 27 827 68 3 0.478 faster 1 2.430423e+06 2.430427e+06 3.775
10 regular 9 28 828 52 3 0.337 faster 0 2.430428e+06 2.430432e+06 3.573
10 regular 9 29 829 69 3 0.457 faster 1 2.430433e+06 2.430436e+06 3.593
10 regular 9 30 830 52 3 0.477 slower 1 2.430438e+06 2.430442e+06 4.516
10 regular 9 31 831 68 3 0.405 faster 1 2.430444e+06 2.430448e+06 3.727
10 regular 9 32 832 67 3 0.164 faster 1 2.430451e+06 2.430455e+06 3.563
10 regular 9 33 833 67 3 0.280 faster 1 2.430456e+06 2.430460e+06 3.758
10 regular 9 34 834 54 3 0.252 faster 0 2.430462e+06 2.430465e+06 3.665
10 regular 9 35 835 67 3 0.541 faster 1 2.430468e+06 2.430472e+06 3.765
10 regular 9 36 836 53 3 0.237 faster 0 2.430474e+06 2.430477e+06 3.572
10 regular 9 37 837 52 3 0.198 faster 0 2.430478e+06 2.430482e+06 3.633
10 regular 9 38 838 51 3 0.385 faster 0 2.430483e+06 2.430487e+06 3.576
10 regular 9 39 839 50 3 0.558 faster 0 2.430489e+06 2.430493e+06 4.003
10 regular 9 40 840 49 3 0.473 faster 0 2.430494e+06 2.430498e+06 3.702
10 regular 9 41 841 72 3 0.316 faster 1 2.430499e+06 2.430503e+06 3.654
10 regular 9 42 842 71 3 0.245 faster 1 2.430504e+06 2.430508e+06 3.559
10 regular 9 43 843 49 3 0.323 slower 1 2.430509e+06 2.430512e+06 3.689
10 regular 9 44 844 50 3 0.403 faster 0 2.430514e+06 2.430518e+06 3.770
10 regular 9 45 845 71 3 0.276 none 2 2.430519e+06 2.430525e+06 5.999
10 regular 9 46 846 49 3 0.438 slower 1 2.430526e+06 2.430530e+06 3.676
10 regular 9 47 847 49 3 0.201 slower 1 2.430532e+06 2.430535e+06 3.615
10 regular 9 48 848 70 3 0.152 slower 0 2.430537e+06 2.430541e+06 4.105
10 regular 9 49 849 49 3 0.187 none 2 2.430542e+06 2.430548e+06 6.000
10 regular 9 50 850 49 3 0.422 slower 1 2.430549e+06 2.430553e+06 3.974
10 regular 9 51 851 49 3 0.545 slower 1 2.430555e+06 2.430559e+06 3.883
10 regular 9 52 852 50 3 0.322 faster 0 2.430561e+06 2.430565e+06 3.913
10 regular 9 53 853 49 3 0.579 faster 0 2.430567e+06 2.430570e+06 3.923
10 regular 9 54 854 48 3 0.327 slower 1 2.430573e+06 2.430576e+06 3.670
10 regular 9 55 855 72 3 0.411 faster 1 2.430579e+06 2.430583e+06 3.654
10 regular 9 56 856 49 3 0.291 faster 0 2.430586e+06 2.430589e+06 3.671
10 regular 9 57 857 48 3 0.389 faster 0 2.430590e+06 2.430594e+06 3.620
10 regular 9 58 858 47 3 0.300 faster 0 2.430595e+06 2.430598e+06 3.589
10 regular 9 59 859 46 3 0.170 slower 1 2.430599e+06 2.430603e+06 3.781
10 regular 9 60 860 74 3 0.457 faster 1 2.430605e+06 2.430608e+06 3.660
10 regular 9 61 861 73 3 0.514 faster 1 2.430610e+06 2.430614e+06 3.740
10 regular 9 62 862 73 3 0.498 faster 1 2.430616e+06 2.430620e+06 3.743
10 regular 9 63 863 72 3 0.218 faster 1 2.430620e+06 2.430624e+06 3.670
10 regular 9 64 864 72 3 0.424 faster 1 2.430626e+06 2.430629e+06 3.764
10 regular 9 65 865 71 3 0.114 faster 1 2.430631e+06 2.430635e+06 4.066
10 regular 9 66 866 71 3 0.346 faster 1 2.430636e+06 2.430639e+06 3.823
10 regular 9 67 867 70 3 0.180 faster 1 2.430641e+06 2.430645e+06 4.452
10 regular 9 68 868 70 3 0.331 faster 1 2.430646e+06 2.430652e+06 5.873
10 regular 9 69 869 69 3 0.408 none 2 2.430654e+06 2.430660e+06 6.000
10 regular 9 70 870 51 3 0.220 slower 1 2.430661e+06 2.430664e+06 3.762
10 regular 9 71 871 69 3 0.171 faster 1 2.430666e+06 2.430670e+06 4.153
10 regular 9 72 872 68 3 0.120 faster 1 2.430671e+06 2.430675e+06 3.999
10 regular 9 73 873 52 3 0.516 faster 0 2.430677e+06 2.430681e+06 4.167
10 regular 9 74 874 51 3 0.239 faster 0 2.430682e+06 2.430686e+06 3.950
10 regular 9 75 875 50 3 0.176 faster 0 2.430689e+06 2.430692e+06 3.689
10 regular 9 76 876 49 3 0.350 faster 0 2.430694e+06 2.430698e+06 3.841
10 regular 9 77 877 48 3 0.392 slower 1 2.430699e+06 2.430703e+06 3.983
10 regular 9 78 878 49 3 0.143 faster 0 2.430706e+06 2.430709e+06 3.664
10 regular 9 79 879 72 3 0.588 faster 1 2.430712e+06 2.430716e+06 4.241
10 regular 9 80 880 72 3 0.406 faster 1 2.430718e+06 2.430722e+06 4.115
10 regular 9 81 881 49 3 0.571 faster 0 2.430724e+06 2.430728e+06 4.161
10 regular 9 82 882 72 3 0.226 none 2 2.430729e+06 2.430735e+06 5.999
10 regular 9 83 883 72 3 0.430 none 2 2.430736e+06 2.430742e+06 5.999
10 regular 9 84 884 48 3 0.305 slower 1 2.430753e+06 2.430757e+06 3.766
10 regular 9 85 885 48 3 0.253 slower 1 2.430758e+06 2.430762e+06 3.781
10 regular 9 86 886 49 3 0.305 slower 1 2.430763e+06 2.430767e+06 3.877
10 regular 9 87 887 49 3 0.327 none 2 2.430768e+06 2.430774e+06 5.999
10 regular 9 88 888 71 3 0.354 none 2 2.430775e+06 2.430781e+06 5.999
10 regular 9 89 889 49 3 0.344 faster 0 2.430782e+06 2.430787e+06 4.554
10 regular 9 90 890 72 3 0.147 faster 1 2.430790e+06 2.430794e+06 3.999
10 regular 9 91 891 71 3 0.416 faster 1 2.430796e+06 2.430800e+06 3.637
10 regular 9 92 892 49 3 0.265 slower 1 2.430801e+06 2.430806e+06 4.083
10 regular 9 93 893 70 3 0.177 faster 1 2.430807e+06 2.430811e+06 3.620
10 regular 9 94 894 50 3 0.196 none 2 2.430812e+06 2.430818e+06 6.000
10 regular 9 95 895 50 3 0.488 slower 1 2.430819e+06 2.430823e+06 3.688
10 regular 9 96 896 69 3 0.367 faster 1 2.430824e+06 2.430828e+06 3.608
10 regular 9 97 897 69 3 0.427 faster 1 2.430830e+06 2.430834e+06 3.603
10 regular 9 98 898 68 3 0.388 faster 1 2.430835e+06 2.430839e+06 3.681
10 regular 9 99 899 68 3 0.335 faster 1 2.430840e+06 2.430844e+06 3.776
10 regular 9 100 900 53 3 0.427 faster 0 2.430846e+06 2.430850e+06 3.649
10 irregular 10 1 901 68 1 0.413 faster 1 2.430943e+06 2.430944e+06 1.824
10 irregular 10 2 902 52 2.500000e+00 0.166 faster 0 2.430945e+06 2.430948e+06 3.120
10 irregular 10 3 903 51 1 0.320 faster 0 2.430949e+06 2.430951e+06 1.649
10 irregular 10 4 904 50 2 0.588 faster 0 2.430952e+06 2.430955e+06 2.651
10 irregular 10 5 905 71 1 0.249 faster 1 2.430956e+06 2.430958e+06 1.550
10 irregular 10 6 906 70 3 0.449 faster 1 2.430959e+06 2.430963e+06 3.720
10 irregular 10 7 907 70 2 0.497 faster 1 2.430964e+06 2.430967e+06 2.584
10 irregular 10 8 908 51 2 0.231 faster 0 2.430968e+06 2.430971e+06 2.746
10 irregular 10 9 909 50 2 0.302 faster 0 2.430972e+06 2.430975e+06 2.612
10 irregular 10 10 910 71 3 0.337 slower 0 2.430976e+06 2.430980e+06 3.708
10 irregular 10 11 911 72 1 0.118 faster 1 2.430983e+06 2.430984e+06 1.703
10 irregular 10 12 912 72 2 0.333 faster 1 2.430985e+06 2.430989e+06 3.168
10 irregular 10 13 913 49 1 0.303 faster 0 2.430990e+06 2.430992e+06 1.714
10 irregular 10 14 914 72 3 0.478 faster 1 2.430993e+06 2.430997e+06 3.669
10 irregular 10 15 915 48 3 0.458 slower 1 2.430999e+06 2.431002e+06 3.127
10 irregular 10 16 916 71 3 0.384 faster 1 2.431004e+06 2.431007e+06 3.542
10 irregular 10 17 917 71 2.500000e+00 0.164 faster 1 2.431008e+06 2.431011e+06 3.153
10 irregular 10 18 918 50 2 0.460 faster 0 2.431013e+06 2.431016e+06 2.697
10 irregular 10 19 919 49 2.500000e+00 0.329 slower 1 2.431017e+06 2.431021e+06 3.656
10 irregular 10 20 920 71 2 0.278 slower 0 2.431022e+06 2.431025e+06 3.027
10 irregular 10 21 921 72 1.500000e+00 0.338 faster 1 2.431027e+06 2.431029e+06 2.110
10 irregular 10 22 922 49 2.500000e+00 0.329 slower 1 2.431031e+06 2.431034e+06 3.279
10 irregular 10 23 923 71 2 0.308 faster 1 2.431035e+06 2.431038e+06 2.592
10 irregular 10 24 924 50 2 0.490 none 2 2.431041e+06 2.431046e+06 5.000
10 irregular 10 25 925 50 1.500000e+00 0.585 slower 1 2.431047e+06 2.431049e+06 2.202
10 irregular 10 26 926 50 3 0.122 slower 1 2.431051e+06 2.431055e+06 3.777
10 irregular 10 27 927 51 1 0.343 faster 0 2.431056e+06 2.431058e+06 2.561
10 irregular 10 28 928 70 2 0.139 faster 1 2.431059e+06 2.431062e+06 2.582
10 irregular 10 29 929 50 1 0.512 faster 0 2.431064e+06 2.431065e+06 1.685
10 irregular 10 30 930 71 3 0.561 faster 1 2.431067e+06 2.431070e+06 3.616
10 irregular 10 31 931 70 3 0.299 faster 1 2.431072e+06 2.431076e+06 3.486
10 irregular 10 32 932 50 1.500000e+00 0.390 faster 0 2.431077e+06 2.431079e+06 2.135
10 irregular 10 33 933 71 1 0.554 faster 1 2.431081e+06 2.431082e+06 1.641
10 irregular 10 34 934 70 1.500000e+00 0.128 faster 1 2.431083e+06 2.431086e+06 2.085
10 irregular 10 35 935 70 2.500000e+00 0.151 faster 1 2.431086e+06 2.431089e+06 3.026
10 irregular 10 36 936 69 2.500000e+00 0.333 faster 1 2.431091e+06 2.431094e+06 3.036
10 irregular 10 37 937 69 1.500000e+00 0.596 faster 1 2.431095e+06 2.431097e+06 2.124
10 irregular 10 38 938 68 2 0.546 faster 1 2.431098e+06 2.431101e+06 2.570
10 irregular 10 39 939 68 2.500000e+00 0.213 faster 1 2.431102e+06 2.431106e+06 3.817
10 irregular 10 40 940 53 1.500000e+00 0.228 faster 0 2.431107e+06 2.431110e+06 2.874
10 irregular 10 41 941 68 3 0.417 faster 1 2.431112e+06 2.431116e+06 3.781
10 irregular 10 42 942 68 2.500000e+00 0.184 faster 1 2.431117e+06 2.431121e+06 3.443
10 irregular 10 43 943 53 2 0.384 slower 1 2.431123e+06 2.431126e+06 3.024
10 irregular 10 44 944 53 3 0.429 slower 1 2.431127e+06 2.431131e+06 3.582
10 irregular 10 45 945 54 1 0.597 slower 1 2.431133e+06 2.431134e+06 1.840
10 irregular 10 46 946 66 3 0.359 slower 0 2.431136e+06 2.431140e+06 3.641
10 irregular 10 47 947 67 2.500000e+00 0.385 faster 1 2.431141e+06 2.431145e+06 4.100
10 irregular 10 48 948 54 1.500000e+00 0.105 faster 0 2.431147e+06 2.431150e+06 2.275
10 irregular 10 49 949 67 2.500000e+00 0.525 faster 1 2.431153e+06 2.431156e+06 3.068
10 irregular 10 50 950 67 3 0.282 slower 0 2.431157e+06 2.431161e+06 3.943
10 irregular 10 51 951 52 2.500000e+00 0.422 slower 1 2.431162e+06 2.431165e+06 3.268
10 irregular 10 52 952 53 1 0.488 none 2 2.431167e+06 2.431171e+06 4.000
10 irregular 10 53 953 53 3 0.177 slower 1 2.431171e+06 2.431175e+06 3.578
10 irregular 10 54 954 53 3 0.584 slower 1 2.431177e+06 2.431181e+06 3.715
10 irregular 10 55 955 66 1 0.337 faster 1 2.431182e+06 2.431184e+06 1.760
10 irregular 10 56 956 54 2 0.152 faster 0 2.431185e+06 2.431188e+06 2.916
10 irregular 10 57 957 53 1.500000e+00 0.312 slower 1 2.431189e+06 2.431191e+06 2.159
10 irregular 10 58 958 66 1 0.344 faster 1 2.431192e+06 2.431194e+06 1.792
10 irregular 10 59 959 54 2 0.346 slower 1 2.431195e+06 2.431197e+06 2.860
10 irregular 10 60 960 65 2 0.464 faster 1 2.431199e+06 2.431202e+06 3.120
10 irregular 10 61 961 65 2.500000e+00 0.499 none 2 2.431204e+06 2.431209e+06 5.500
10 irregular 10 62 962 55 2 0.308 slower 1 2.431210e+06 2.431214e+06 3.230
10 irregular 10 63 963 64 1.500000e+00 0.496 faster 1 2.431215e+06 2.431217e+06 2.208
10 irregular 10 64 964 56 1.500000e+00 0.213 slower 1 2.431219e+06 2.431221e+06 2.234
10 irregular 10 65 965 57 2 0.130 slower 1 2.431222e+06 2.431225e+06 2.815
10 irregular 10 66 966 57 3 0.259 slower 1 2.431226e+06 2.431230e+06 3.819
10 irregular 10 67 967 62 3 0.275 slower 0 2.431231e+06 2.431235e+06 3.698
10 irregular 10 68 968 57 2.500000e+00 0.471 faster 0 2.431237e+06 2.431240e+06 3.063
10 irregular 10 69 969 56 2.500000e+00 0.363 slower 1 2.431241e+06 2.431245e+06 4.070
10 irregular 10 70 970 64 1.500000e+00 0.119 faster 1 2.431247e+06 2.431250e+06 2.416
10 irregular 10 71 971 57 3 0.235 slower 1 2.431251e+06 2.431256e+06 4.615
10 irregular 10 72 972 63 1.500000e+00 0.157 faster 1 2.431257e+06 2.431260e+06 3.267
10 irregular 10 73 973 62 1.500000e+00 0.403 faster 1 2.431262e+06 2.431265e+06 2.880
10 irregular 10 74 974 58 1 0.313 faster 0 2.431265e+06 2.431267e+06 1.891
10 irregular 10 75 975 63 1 0.145 faster 1 2.431268e+06 2.431270e+06 1.888
10 irregular 10 76 976 58 2.500000e+00 0.510 faster 0 2.431271e+06 2.431276e+06 4.463
10 irregular 10 77 977 63 2 0.488 slower 0 2.431279e+06 2.431282e+06 3.119
10 irregular 10 78 978 56 1 0.182 faster 0 2.431283e+06 2.431285e+06 1.874
10 irregular 10 79 979 55 1 0.547 faster 0 2.431287e+06 2.431288e+06 1.540
10 irregular 10 80 980 54 3 0.413 slower 1 2.431290e+06 2.431293e+06 3.635
10 irregular 10 81 981 66 1 0.599 faster 1 2.431295e+06 2.431297e+06 1.865
10 irregular 10 82 982 65 1 0.203 faster 1 2.431298e+06 2.431300e+06 1.807
10 irregular 10 83 983 65 2 0.476 slower 0 2.431301e+06 2.431304e+06 2.801
10 irregular 10 84 984 66 1.500000e+00 0.187 faster 1 2.431305e+06 2.431307e+06 2.291
10 irregular 10 85 985 55 1.500000e+00 0.270 faster 0 2.431309e+06 2.431311e+06 2.173
10 irregular 10 86 986 54 3 0.180 none 2 2.431313e+06 2.431319e+06 5.999
10 irregular 10 87 987 66 1.500000e+00 0.389 slower 0 2.431321e+06 2.431324e+06 2.254
10 irregular 10 88 988 53 2.500000e+00 0.267 faster 0 2.431325e+06 2.431329e+06 3.468
10 irregular 10 89 989 52 2.500000e+00 0.356 faster 0 2.431330e+06 2.431334e+06 3.793
10 irregular 10 90 990 69 2.500000e+00 0.244 faster 1 2.431335e+06 2.431339e+06 3.049
10 irregular 10 91 991 69 1.500000e+00 0.596 faster 1 2.431341e+06 2.431343e+06 2.054
10 irregular 10 92 992 52 2.500000e+00 0.178 faster 0 2.431344e+06 2.431347e+06 3.056
10 irregular 10 93 993 51 1.500000e+00 0.221 faster 0 2.431349e+06 2.431352e+06 2.074
10 irregular 10 94 994 50 1.500000e+00 0.264 faster 0 2.431353e+06 2.431355e+06 2.106
10 irregular 10 95 995 49 1.500000e+00 0.277 faster 0 2.431356e+06 2.431361e+06 4.366
10 irregular 10 96 996 72 2 0.291 faster 1 2.431362e+06 2.431364e+06 2.573
10 irregular 10 97 997 72 2.500000e+00 0.400 faster 1 2.431366e+06 2.431369e+06 3.045
10 irregular 10 98 998 71 1 0.428 faster 1 2.431371e+06 2.431373e+06 1.638
10 irregular 10 99 999 49 1 0.564 none 2 2.431375e+06 2.431379e+06 3.999
10 irregular 10 100 1000 49 3 0.572 faster 0 2.431380e+06 2.431384e+06 3.642
