subNo condition blockNo trialNo trialID currentFrequency cueTargetInterval randomPreCueInterval response responseAccuracy startTime responseTime RT
17 irregular 1 1 1 69 3 0.239 faster 1 3.204753e+06 3.204756e+06 3.618
17 irregular 1 2 2 69 1.500000e+00 0.224 faster 1 3.204757e+06 3.204759e+06 1.985
17 irregular 1 3 3 67 2.500000e+00 0.252 faster 1 3.204761e+06 3.204764e+06 3.295
17 irregular 1 4 4 53 3 0.415 faster 0 3.204765e+06 3.204769e+06 3.707
17 irregular 1 5 5 69 1.500000e+00 0.199 faster 1 3.204770e+06 3.204772e+06 2.022
17 irregular 1 6 6 67 1.500000e+00 0.589 faster 1 3.204773e+06 3.204775e+06 1.882
17 irregular 1 7 7 67 2 0.186 faster 1 3.204776e+06 3.204779e+06 2.417
17 irregular 1 8 8 55 2.500000e+00 0.107 faster 0 3.204779e+06 3.204782e+06 2.943
17 irregular 1 9 9 67 1 0.496 faster 1 3.204784e+06 3.204786e+06 1.751
17 irregular 1 10 10 53 2.500000e+00 0.246 faster 0 3.204787e+06 3.204791e+06 3.500
17 irregular 1 11 11 69 3 0.567 faster 1 3.204792e+06 3.204796e+06 3.707
17 irregular 1 12 12 67 2 0.348 faster 1 3.204797e+06 3.204800e+06 2.470
17 irregular 1 13 13 67 1 0.387 faster 1 3.204801e+06 3.204803e+06 1.659
17 irregular 1 14 14 54 3 0.253 faster 0 3.204803e+06 3.204807e+06 3.585
17 irregular 1 15 15 53 2.500000e+00 0.591 faster 0 3.204809e+06 3.204812e+06 3.056
17 irregular 1 16 16 52 2 0.518 faster 0 3.204813e+06 3.204816e+06 2.488
17 irregular 1 17 17 51 1 0.345 faster 0 3.204817e+06 3.204818e+06 1.541
17 irregular 1 18 18 70 2.500000e+00 0.326 faster 1 3.204819e+06 3.204822e+06 3.032
17 irregular 1 19 19 50 1.500000e+00 0.105 faster 0 3.204824e+06 3.204826e+06 2.057
17 irregular 1 20 20 49 2.500000e+00 0.555 slower 1 3.204827e+06 3.204830e+06 3.305
17 irregular 1 21 21 50 2 0.420 faster 0 3.204832e+06 3.204834e+06 2.696
17 irregular 1 22 22 71 1.500000e+00 0.415 faster 1 3.204836e+06 3.204838e+06 2.050
17 irregular 1 23 23 71 1 0.208 faster 1 3.204839e+06 3.204841e+06 1.655
17 irregular 1 24 24 50 1 0.195 slower 1 3.204841e+06 3.204843e+06 1.769
17 irregular 1 25 25 70 2.500000e+00 0.401 faster 1 3.204844e+06 3.204847e+06 2.999
17 irregular 1 26 26 51 3 0.407 slower 1 3.204849e+06 3.204853e+06 4.535
17 irregular 1 27 27 69 3 0.397 faster 1 3.204855e+06 3.204858e+06 3.514
17 irregular 1 28 28 52 1 0.364 faster 0 3.204860e+06 3.204862e+06 2.635
17 irregular 1 29 29 51 1.500000e+00 0.572 faster 0 3.204864e+06 3.204866e+06 2.339
17 irregular 1 30 30 70 3 0.126 faster 1 3.204867e+06 3.204871e+06 3.523
17 irregular 1 31 31 70 2.500000e+00 0.326 faster 1 3.204872e+06 3.204875e+06 2.971
17 irregular 1 32 32 69 1 0.452 faster 1 3.204876e+06 3.204878e+06 1.686
17 irregular 1 33 33 51 1.500000e+00 0.219 slower 1 3.204879e+06 3.204881e+06 2.210
17 irregular 1 34 34 68 1 0.424 faster 1 3.204883e+06 3.204884e+06 1.743
17 irregular 1 35 35 52 1.500000e+00 0.452 faster 0 3.204886e+06 3.204888e+06 2.314
17 irregular 1 36 36 69 2.500000e+00 0.579 faster 1 3.204890e+06 3.204893e+06 3.122
17 irregular 1 37 37 68 1.500000e+00 0.278 faster 1 3.204895e+06 3.204897e+06 2.187
17 irregular 1 38 38 68 2 0.262 faster 1 3.204898e+06 3.204900e+06 2.545
17 irregular 1 39 39 53 2 0.185 slower 1 3.204901e+06 3.204905e+06 3.609
17 irregular 1 40 40 67 3 0.129 faster 1 3.204905e+06 3.204909e+06 3.634
17 irregular 1 41 41 54 2 0.582 faster 0 3.204911e+06 3.204913e+06 2.575
17 irregular 1 42 42 67 2 0.372 faster 1 3.204915e+06 3.204918e+06 2.451
17 irregular 1 43 43 53 1 0.350 faster 0 3.204920e+06 3.204922e+06 1.887
17 irregular 1 44 44 68 3 0.176 faster 1 3.204923e+06 3.204927e+06 3.595
17 irregular 1 45 45 53 1.500000e+00 0.341 faster 0 3.204928e+06 3.204930e+06 2.082
17 irregular 1 46 46 52 1 0.240 faster 0 3.204932e+06 3.204933e+06 1.592
17 irregular 1 47 47 69 3 0.323 faster 1 3.204935e+06 3.204939e+06 4.346
17 irregular 1 48 48 69 2.500000e+00 0.387 faster 1 3.204940e+06 3.204943e+06 3.001
17 irregular 1 49 49 52 2 0.597 faster 0 3.204945e+06 3.204948e+06 2.672
17 irregular 1 50 50 51 2.500000e+00 0.268 faster 0 3.204949e+06 3.204952e+06 3.194
17 irregular 1 51 51 70 1 0.418 faster 1 3.204954e+06 3.204955e+06 1.806
17 irregular 1 52 52 70 3 0.255 faster 1 3.204957e+06 3.204960e+06 3.613
17 irregular 1 53 53 69 2 0.189 faster 1 3.204962e+06 3.204964e+06 2.702
17 irregular 1 54 54 69 3 0.444 faster 1 3.204966e+06 3.204970e+06 3.536
17 irregular 1 55 55 52 3 0.582 faster 0 3.204971e+06 3.204975e+06 3.576
17 irregular 1 56 56 69 1.500000e+00 0.268 faster 1 3.204976e+06 3.204978e+06 2.279
17 irregular 1 57 57 69 3 0.272 faster 1 3.204980e+06 3.204983e+06 3.682
17 irregular 1 58 58 52 3 0.484 slower 1 3.204986e+06 3.204991e+06 5.360
17 irregular 1 59 59 68 1.500000e+00 0.146 slower 0 3.204992e+06 3.204995e+06 2.727
17 irregular 1 60 60 51 3 0.134 slower 1 3.204996e+06 3.205000e+06 4.009
17 irregular 1 61 61 52 3 0.321 slower 1 3.205002e+06 3.205005e+06 3.626
17 irregular 1 62 62 68 2 0.386 faster 1 3.205008e+06 3.205011e+06 3.058
17 irregular 1 63 63 53 2.500000e+00 0.352 faster 0 3.205012e+06 3.205015e+06 3.100
17 irregular 1 64 64 52 1.500000e+00 0.544 faster 0 3.205017e+06 3.205019e+06 2.178
17 irregular 1 65 65 51 3 0.350 faster 0 3.205021e+06 3.205025e+06 3.862
17 irregular 1 66 66 70 2.500000e+00 0.330 faster 1 3.205026e+06 3.205029e+06 3.099
17 irregular 1 67 67 70 2 0.183 faster 1 3.205030e+06 3.205033e+06 2.620
17 irregular 1 68 68 69 2 0.328 faster 1 3.205035e+06 3.205038e+06 3.354
17 irregular 1 69 69 51 1 0.319 faster 0 3.205040e+06 3.205042e+06 2.728
17 irregular 1 70 70 70 1.500000e+00 0.186 faster 1 3.205044e+06 3.205047e+06 2.177
17 irregular 1 71 71 51 2 0.353 slower 1 3.205048e+06 3.205051e+06 2.809
17 irregular 1 72 72 69 1.500000e+00 0.561 faster 1 3.205053e+06 3.205055e+06 2.140
17 irregular 1 73 73 52 3 0.166 faster 0 3.205057e+06 3.205060e+06 3.641
17 irregular 1 74 74 69 1 0.357 faster 1 3.205061e+06 3.205063e+06 2.080
17 irregular 1 75 75 51 2.500000e+00 0.127 slower 1 3.205065e+06 3.205068e+06 3.501
17 irregular 1 76 76 52 1 0.142 slower 1 3.205069e+06 3.205071e+06 2.190
17 irregular 1 77 77 52 2 0.505 slower 1 3.205073e+06 3.205076e+06 2.518
17 irregular 1 78 78 67 2.500000e+00 0.409 slower 0 3.205077e+06 3.205081e+06 3.427
17 irregular 1 79 79 52 1.500000e+00 0.431 slower 1 3.205082e+06 3.205084e+06 2.276
17 irregular 1 80 80 52 1.500000e+00 0.337 slower 1 3.205086e+06 3.205088e+06 2.183
17 irregular 1 81 81 67 2 0.120 faster 1 3.205089e+06 3.205092e+06 3.022
17 irregular 1 82 82 53 1 0.171 faster 0 3.205094e+06 3.205095e+06 1.808
17 irregular 1 83 83 68 1 0.316 faster 1 3.205096e+06 3.205098e+06 1.602
17 irregular 1 84 84 53 2.500000e+00 0.286 faster 0 3.205100e+06 3.205103e+06 3.794
17 irregular 1 85 85 52 2.500000e+00 0.220 faster 0 3.205105e+06 3.205109e+06 3.857
17 irregular 1 86 86 51 2 0.452 faster 0 3.205110e+06 3.205113e+06 2.862
17 irregular 1 87 87 70 2.500000e+00 0.483 none 2 3.205114e+06 3.205120e+06 5.499
17 irregular 1 88 88 70 2.500000e+00 0.180 faster 1 3.205120e+06 3.205123e+06 3.080
17 irregular 1 89 89 50 3 0.581 slower 1 3.205125e+06 3.205130e+06 4.734
17 irregular 1 90 90 69 1 0.437 faster 1 3.205132e+06 3.205134e+06 1.819
17 irregular 1 91 91 51 1 0.162 slower 1 3.205135e+06 3.205138e+06 2.455
17 irregular 1 92 92 52 1.500000e+00 0.453 faster 0 3.205139e+06 3.205143e+06 3.915
17 irregular 1 93 93 69 2 0.414 faster 1 3.205144e+06 3.205147e+06 2.504
17 irregular 1 94 94 51 2 0.156 faster 0 3.205148e+06 3.205151e+06 2.753
17 irregular 1 95 95 50 2 0.429 faster 0 3.205152e+06 3.205156e+06 3.918
17 irregular 1 96 96 71 1.500000e+00 0.344 faster 1 3.205158e+06 3.205160e+06 2.064
17 irregular 1 97 97 50 1 0.412 none 2 3.205162e+06 3.205166e+06 4.000
17 irregular 1 98 98 50 1.500000e+00 0.334 faster 0 3.205167e+06 3.205170e+06 3.197
17 irregular 1 99 99 49 2.500000e+00 0.412 slower 1 3.205171e+06 3.205175e+06 3.700
17 irregular 1 100 100 71 1 0.260 faster 1 3.205176e+06 3.205178e+06 1.761
17 regular 2 1 101 50 1 0.240 slower 1 3.205227e+06 3.205229e+06 2.412
17 regular 2 2 102 70 1 0.499 faster 1 3.205231e+06 3.205233e+06 1.687
17 regular 2 3 103 69 1 0.289 faster 1 3.205234e+06 3.205236e+06 1.479
17 regular 2 4 104 51 1 0.500 faster 0 3.205238e+06 3.205239e+06 1.541
17 regular 2 5 105 50 1 0.437 faster 0 3.205240e+06 3.205242e+06 1.894
17 regular 2 6 106 49 1 0.295 faster 0 3.205243e+06 3.205244e+06 1.435
17 regular 2 7 107 72 1 0.194 faster 1 3.205245e+06 3.205247e+06 1.443
17 regular 2 8 108 71 1 0.368 faster 1 3.205248e+06 3.205250e+06 1.410
17 regular 2 9 109 71 1 0.481 faster 1 3.205251e+06 3.205253e+06 1.455
17 regular 2 10 110 70 1 0.435 faster 1 3.205254e+06 3.205256e+06 1.396
17 regular 2 11 111 70 1 0.276 faster 1 3.205257e+06 3.205259e+06 1.692
17 regular 2 12 112 51 1 0.216 faster 0 3.205260e+06 3.205261e+06 1.729
17 regular 2 13 113 70 1 0.428 faster 1 3.205263e+06 3.205265e+06 1.601
17 regular 2 14 114 70 1 0.402 faster 1 3.205266e+06 3.205268e+06 1.719
17 regular 2 15 115 51 1 0.481 faster 0 3.205269e+06 3.205271e+06 1.664
17 regular 2 16 116 50 1 0.138 slower 1 3.205272e+06 3.205274e+06 2.043
17 regular 2 17 117 50 1 0.473 slower 1 3.205275e+06 3.205278e+06 3.104
17 regular 2 18 118 51 1 0.483 slower 1 3.205280e+06 3.205282e+06 1.754
17 regular 2 19 119 69 1 0.312 faster 1 3.205283e+06 3.205285e+06 1.583
17 regular 2 20 120 52 1 0.252 faster 0 3.205286e+06 3.205288e+06 2.235
17 regular 2 21 121 51 1 0.453 slower 1 3.205289e+06 3.205291e+06 1.856
17 regular 2 22 122 51 1 0.193 slower 1 3.205293e+06 3.205294e+06 1.569
17 regular 2 23 123 52 1 0.161 faster 0 3.205295e+06 3.205297e+06 1.840
17 regular 2 24 124 51 1 0.276 faster 0 3.205298e+06 3.205300e+06 1.816
17 regular 2 25 125 50 1 0.340 slower 1 3.205302e+06 3.205303e+06 1.677
17 regular 2 26 126 50 1 0.308 slower 1 3.205304e+06 3.205306e+06 1.827
17 regular 2 27 127 69 1 0.551 slower 0 3.205307e+06 3.205310e+06 2.644
17 regular 2 28 128 50 1 0.392 slower 1 3.205311e+06 3.205313e+06 1.878
17 regular 2 29 129 50 1 0.253 slower 1 3.205314e+06 3.205316e+06 1.557
17 regular 2 30 130 51 1 0.203 slower 1 3.205317e+06 3.205319e+06 2.402
17 regular 2 31 131 69 1 0.439 faster 1 3.205321e+06 3.205322e+06 1.723
17 regular 2 32 132 68 1 0.321 faster 1 3.205324e+06 3.205325e+06 1.492
17 regular 2 33 133 52 1 0.416 faster 0 3.205326e+06 3.205328e+06 1.623
17 regular 2 34 134 69 1 0.401 faster 1 3.205329e+06 3.205330e+06 1.500
17 regular 2 35 135 68 1 0.597 faster 1 3.205332e+06 3.205333e+06 1.588
17 regular 2 36 136 52 1 0.427 faster 0 3.205334e+06 3.205336e+06 2.077
17 regular 2 37 137 51 1 0.179 faster 0 3.205337e+06 3.205339e+06 1.561
17 regular 2 38 138 70 1 0.341 faster 1 3.205340e+06 3.205342e+06 1.464
17 regular 2 39 139 69 1 0.518 faster 1 3.205343e+06 3.205345e+06 2.023
17 regular 2 40 140 69 1 0.190 faster 1 3.205346e+06 3.205348e+06 1.976
17 regular 2 41 141 52 1 0.237 faster 0 3.205349e+06 3.205351e+06 1.574
17 regular 2 42 142 69 1 0.599 faster 1 3.205352e+06 3.205354e+06 1.838
17 regular 2 43 143 69 1 0.504 slower 0 3.205356e+06 3.205359e+06 3.036
17 regular 2 44 144 70 1 0.325 faster 1 3.205359e+06 3.205361e+06 1.618
17 regular 2 45 145 69 1 0.183 faster 1 3.205363e+06 3.205365e+06 1.997
17 regular 2 46 146 51 1 0.276 slower 1 3.205366e+06 3.205368e+06 2.193
17 regular 2 47 147 68 1 0.114 faster 1 3.205370e+06 3.205371e+06 1.520
17 regular 2 48 148 52 1 0.240 faster 0 3.205373e+06 3.205374e+06 1.800
17 regular 2 49 149 69 1 0.382 slower 0 3.205376e+06 3.205378e+06 1.776
17 regular 2 50 150 70 1 0.233 faster 1 3.205379e+06 3.205381e+06 1.743
17 regular 2 51 151 51 1 0.404 slower 1 3.205382e+06 3.205385e+06 3.053
17 regular 2 52 152 69 1 0.273 faster 1 3.205386e+06 3.205387e+06 1.612
17 regular 2 53 153 68 1 0.470 faster 1 3.205389e+06 3.205391e+06 1.988
17 regular 2 54 154 68 1 0.205 slower 0 3.205392e+06 3.205395e+06 3.388
17 regular 2 55 155 69 1 0.181 slower 0 3.205396e+06 3.205398e+06 2.451
17 regular 2 56 156 50 1 0.223 faster 0 3.205400e+06 3.205402e+06 2.304
17 regular 2 57 157 71 1 0.471 faster 1 3.205403e+06 3.205405e+06 1.554
17 regular 2 58 158 50 1 0.547 faster 0 3.205406e+06 3.205407e+06 1.574
17 regular 2 59 159 71 1 0.389 faster 1 3.205408e+06 3.205410e+06 1.418
17 regular 2 60 160 49 1 0.174 faster 0 3.205411e+06 3.205412e+06 1.636
17 regular 2 61 161 72 1 0.425 faster 1 3.205413e+06 3.205415e+06 1.495
17 regular 2 62 162 71 1 0.139 faster 1 3.205416e+06 3.205417e+06 1.664
17 regular 2 63 163 71 1 0.559 slower 0 3.205419e+06 3.205417e+06 -1.734
17 regular 2 64 164 72 1 0.215 faster 1 3.205421e+06 3.205423e+06 1.634
17 regular 2 65 165 71 1 0.195 faster 1 3.205424e+06 3.205426e+06 1.581
17 regular 2 66 166 71 1 0.324 faster 1 3.205427e+06 3.205430e+06 2.888
17 regular 2 67 167 50 1 0.501 faster 0 3.205431e+06 3.205433e+06 1.882
17 regular 2 68 168 49 1 0.566 faster 0 3.205435e+06 3.205438e+06 3.501
17 regular 2 69 169 72 1 0.145 faster 1 3.205439e+06 3.205441e+06 1.644
17 regular 2 70 170 72 1 0.416 faster 1 3.205442e+06 3.205444e+06 1.681
17 regular 2 71 171 49 1 0.208 faster 0 3.205445e+06 3.205448e+06 3.100
17 regular 2 72 172 48 1 0.232 faster 0 3.205449e+06 3.205451e+06 1.526
17 regular 2 73 173 73 1 0.492 faster 1 3.205452e+06 3.205454e+06 1.513
17 regular 2 74 174 47 1 0.454 faster 0 3.205455e+06 3.205457e+06 1.619
17 regular 2 75 175 46 1 0.153 slower 1 3.205458e+06 3.205461e+06 3.221
17 regular 2 76 176 73 1 0.125 faster 1 3.205462e+06 3.205463e+06 1.638
17 regular 2 77 177 47 1 0.558 slower 1 3.205465e+06 3.205467e+06 1.889
17 regular 2 78 178 48 1 0.329 faster 0 3.205468e+06 3.205469e+06 1.533
17 regular 2 79 179 47 1 0.449 faster 0 3.205471e+06 3.205473e+06 2.643
17 regular 2 80 180 74 1 0.389 faster 1 3.205475e+06 3.205476e+06 1.673
17 regular 2 81 181 46 1 0.229 slower 1 3.205478e+06 3.205480e+06 2.138
17 regular 2 82 182 47 1 0.521 none 2 3.205481e+06 3.205485e+06 4.000
17 regular 2 83 183 73 1 0.513 faster 1 3.205486e+06 3.205488e+06 1.622
17 regular 2 84 184 47 1 0.109 slower 1 3.205489e+06 3.205491e+06 1.719
17 regular 2 85 185 72 1 0.103 faster 1 3.205492e+06 3.205493e+06 1.542
17 regular 2 86 186 72 1 0.594 slower 0 3.205494e+06 3.205496e+06 2.137
17 regular 2 87 187 73 1 0.361 slower 0 3.205497e+06 3.205500e+06 2.173
17 regular 2 88 188 46 1 0.396 faster 0 3.205501e+06 3.205502e+06 1.354
17 regular 2 89 189 75 1 0.531 faster 1 3.205503e+06 3.205505e+06 1.975
17 regular 2 90 190 46 1 0.205 slower 1 3.205506e+06 3.205508e+06 1.712
17 regular 2 91 191 46 1 0.522 slower 1 3.205509e+06 3.205511e+06 2.348
17 regular 2 92 192 47 1 0.586 slower 1 3.205512e+06 3.205514e+06 1.760
17 regular 2 93 193 47 1 0.576 slower 1 3.205516e+06 3.205518e+06 1.604
17 regular 2 94 194 48 1 0.351 slower 1 3.205520e+06 3.205521e+06 1.636
17 regular 2 95 195 72 1 0.550 faster 1 3.205523e+06 3.205525e+06 1.547
17 regular 2 96 196 71 1 0.348 faster 1 3.205526e+06 3.205528e+06 2.283
17 regular 2 97 197 49 1 0.239 slower 1 3.205529e+06 3.205530e+06 1.575
17 regular 2 98 198 70 1 0.374 faster 1 3.205531e+06 3.205533e+06 1.485
17 regular 2 99 199 50 1 0.391 faster 0 3.205534e+06 3.205536e+06 1.518
17 regular 2 100 200 49 1 0.362 faster 0 3.205537e+06 3.205539e+06 1.849
17 irregular 3 1 201 48 2.500000e+00 0.591 faster 0 3.205635e+06 3.205639e+06 3.365
17 irregular 3 2 202 47 1.500000e+00 0.378 faster 0 3.205640e+06 3.205642e+06 2.160
17 irregular 3 3 203 46 1.500000e+00 0.536 slower 1 3.205643e+06 3.205646e+06 2.322
17 irregular 3 4 204 47 2 0.202 faster 0 3.205647e+06 3.205650e+06 3.047
17 irregular 3 5 205 46 3 0.104 none 2 3.205651e+06 3.205657e+06 5.999
17 irregular 3 6 206 74 2.500000e+00 0.214 faster 1 3.205658e+06 3.205661e+06 2.950
17 irregular 3 7 207 74 1 0.175 faster 1 3.205662e+06 3.205664e+06 1.595
17 irregular 3 8 208 73 2.500000e+00 0.577 faster 1 3.205665e+06 3.205668e+06 3.007
17 irregular 3 9 209 47 1.500000e+00 0.533 slower 1 3.205670e+06 3.205672e+06 2.393
17 irregular 3 10 210 72 1.500000e+00 0.375 faster 1 3.205673e+06 3.205675e+06 1.960
17 irregular 3 11 211 48 2 0.529 faster 0 3.205677e+06 3.205679e+06 2.633
17 irregular 3 12 212 47 2.500000e+00 0.119 slower 1 3.205680e+06 3.205683e+06 3.153
17 irregular 3 13 213 48 3 0.205 slower 1 3.205684e+06 3.205688e+06 3.547
17 irregular 3 14 214 48 3 0.248 slower 1 3.205688e+06 3.205692e+06 3.600
17 irregular 3 15 215 49 1.500000e+00 0.347 slower 1 3.205693e+06 3.205695e+06 2.043
17 irregular 3 16 216 49 3 0.447 faster 0 3.205696e+06 3.205700e+06 3.604
17 irregular 3 17 217 72 3 0.600 faster 1 3.205701e+06 3.205705e+06 3.602
17 irregular 3 18 218 71 2.500000e+00 0.153 faster 1 3.205705e+06 3.205709e+06 3.169
17 irregular 3 19 219 49 1 0.530 none 2 3.205710e+06 3.205714e+06 4.000
17 irregular 3 20 220 49 2.500000e+00 0.207 faster 0 3.205715e+06 3.205718e+06 3.157
17 irregular 3 21 221 48 1 0.431 slower 1 3.205719e+06 3.205721e+06 1.709
17 irregular 3 22 222 71 1.500000e+00 0.227 faster 1 3.205722e+06 3.205724e+06 2.061
17 irregular 3 23 223 71 1 0.304 faster 1 3.205725e+06 3.205726e+06 1.528
17 irregular 3 24 224 70 2.500000e+00 0.339 faster 1 3.205727e+06 3.205730e+06 3.003
17 irregular 3 25 225 70 2 0.104 faster 1 3.205731e+06 3.205734e+06 2.443
17 irregular 3 26 226 51 1 0.455 faster 0 3.205735e+06 3.205737e+06 1.681
17 irregular 3 27 227 70 1 0.161 slower 0 3.205737e+06 3.205740e+06 2.320
17 irregular 3 28 228 49 2.500000e+00 0.161 slower 1 3.205741e+06 3.205744e+06 3.086
17 irregular 3 29 229 49 2 0.110 slower 1 3.205745e+06 3.205747e+06 2.933
17 irregular 3 30 230 50 2 0.466 slower 1 3.205749e+06 3.205751e+06 2.841
17 irregular 3 31 231 50 1.500000e+00 0.449 faster 0 3.205753e+06 3.205755e+06 2.220
17 irregular 3 32 232 71 1 0.281 faster 1 3.205756e+06 3.205757e+06 1.586
17 irregular 3 33 233 50 2.500000e+00 0.531 faster 0 3.205759e+06 3.205762e+06 3.074
17 irregular 3 34 234 71 1.500000e+00 0.405 faster 1 3.205763e+06 3.205766e+06 3.067
17 irregular 3 35 235 71 3 0.238 faster 1 3.205767e+06 3.205770e+06 3.646
17 irregular 3 36 236 70 3 0.568 faster 1 3.205772e+06 3.205776e+06 3.569
17 irregular 3 37 237 50 3 0.117 slower 1 3.205776e+06 3.205780e+06 4.056
17 irregular 3 38 238 51 1 0.396 slower 1 3.205781e+06 3.205783e+06 1.940
17 irregular 3 39 239 69 1.500000e+00 0.487 faster 1 3.205785e+06 3.205787e+06 2.210
17 irregular 3 40 240 52 1.500000e+00 0.202 faster 0 3.205788e+06 3.205790e+06 2.023
17 irregular 3 41 241 69 2.500000e+00 0.573 faster 1 3.205791e+06 3.205794e+06 3.052
17 irregular 3 42 242 51 1.500000e+00 0.201 faster 0 3.205795e+06 3.205797e+06 2.288
17 irregular 3 43 243 50 3 0.246 slower 1 3.205798e+06 3.205803e+06 4.646
17 irregular 3 44 244 51 2 0.351 slower 1 3.205804e+06 3.205807e+06 3.338
17 irregular 3 45 245 69 1.500000e+00 0.190 faster 1 3.205808e+06 3.205810e+06 2.138
17 irregular 3 46 246 68 1.500000e+00 0.511 faster 1 3.205812e+06 3.205814e+06 2.157
17 irregular 3 47 247 68 3 0.553 faster 1 3.205815e+06 3.205818e+06 3.472
17 irregular 3 48 248 53 2.500000e+00 0.584 faster 0 3.205820e+06 3.205823e+06 3.125
17 irregular 3 49 249 68 2.500000e+00 0.153 faster 1 3.205824e+06 3.205827e+06 3.112
17 irregular 3 50 250 68 2.500000e+00 0.168 faster 1 3.205827e+06 3.205831e+06 3.901
17 irregular 3 51 251 53 2.500000e+00 0.322 slower 1 3.205832e+06 3.205835e+06 3.094
17 irregular 3 52 252 53 2.500000e+00 0.103 slower 1 3.205836e+06 3.205840e+06 3.850
17 irregular 3 53 253 54 2 0.209 faster 0 3.205841e+06 3.205844e+06 2.675
17 irregular 3 54 254 53 2 0.482 slower 1 3.205845e+06 3.205848e+06 2.599
17 irregular 3 55 255 53 3 0.525 slower 1 3.205850e+06 3.205854e+06 3.829
17 irregular 3 56 256 66 2 0.265 faster 1 3.205855e+06 3.205858e+06 2.752
17 irregular 3 57 257 66 3 0.338 faster 1 3.205859e+06 3.205863e+06 4.322
17 irregular 3 58 258 65 1 0.273 slower 0 3.205864e+06 3.205866e+06 1.737
17 irregular 3 59 259 66 3 0.518 faster 1 3.205867e+06 3.205871e+06 3.657
17 irregular 3 60 260 66 2.500000e+00 0.132 none 2 3.205872e+06 3.205877e+06 5.500
17 irregular 3 61 261 54 2 0.188 slower 1 3.205878e+06 3.205881e+06 2.680
17 irregular 3 62 262 65 3 0.310 slower 0 3.205882e+06 3.205885e+06 3.777
17 irregular 3 63 263 66 2 0.219 none 2 3.205886e+06 3.205891e+06 4.999
17 irregular 3 64 264 54 1 0.407 faster 0 3.205892e+06 3.205894e+06 1.643
17 irregular 3 65 265 67 2.500000e+00 0.585 faster 1 3.205895e+06 3.205899e+06 3.755
17 irregular 3 66 266 53 1.500000e+00 0.525 faster 0 3.205900e+06 3.205903e+06 3.046
17 irregular 3 67 267 68 2 0.346 faster 1 3.205904e+06 3.205907e+06 2.601
17 irregular 3 68 268 53 2.500000e+00 0.556 faster 0 3.205908e+06 3.205912e+06 3.815
17 irregular 3 69 269 52 1 0.517 faster 0 3.205914e+06 3.205916e+06 2.069
17 irregular 3 70 270 69 2.500000e+00 0.502 faster 1 3.205917e+06 3.205921e+06 3.654
17 irregular 3 71 271 51 3 0.223 faster 0 3.205923e+06 3.205927e+06 4.068
17 irregular 3 72 272 70 2 0.537 faster 1 3.205929e+06 3.205932e+06 2.873
17 irregular 3 73 273 69 1.500000e+00 0.235 faster 1 3.205933e+06 3.205935e+06 2.162
17 irregular 3 74 274 69 2 0.146 none 2 3.205936e+06 3.205941e+06 4.999
17 irregular 3 75 275 69 1 0.484 faster 1 3.205942e+06 3.205944e+06 1.714
17 irregular 3 76 276 68 1.500000e+00 0.215 none 2 3.205945e+06 3.205950e+06 4.499
17 irregular 3 77 277 52 3 0.386 faster 0 3.205951e+06 3.205955e+06 3.786
17 irregular 3 78 278 51 1.500000e+00 0.133 slower 1 3.205957e+06 3.205959e+06 2.900
17 irregular 3 79 279 69 3 0.434 faster 1 3.205961e+06 3.205964e+06 3.660
17 irregular 3 80 280 52 3 0.407 faster 0 3.205965e+06 3.205969e+06 4.179
17 irregular 3 81 281 51 1.500000e+00 0.149 slower 1 3.205970e+06 3.205974e+06 3.812
17 irregular 3 82 282 51 1 0.544 faster 0 3.205976e+06 3.205977e+06 1.597
17 irregular 3 83 283 70 2 0.160 faster 1 3.205978e+06 3.205981e+06 2.535
17 irregular 3 84 284 51 2 0.476 faster 0 3.205982e+06 3.205984e+06 2.568
17 irregular 3 85 285 70 1.500000e+00 0.587 faster 1 3.205986e+06 3.205988e+06 2.126
17 irregular 3 86 286 70 1 0.540 faster 1 3.205989e+06 3.205991e+06 1.600
17 irregular 3 87 287 51 2.500000e+00 0.100 faster 0 3.205991e+06 3.205995e+06 3.340
17 irregular 3 88 288 70 1 0.124 faster 1 3.205996e+06 3.205997e+06 1.676
17 irregular 3 89 289 70 2 0.455 faster 1 3.205999e+06 3.206001e+06 2.483
17 irregular 3 90 290 69 1 0.412 faster 1 3.206003e+06 3.206005e+06 1.640
17 irregular 3 91 291 51 1 0.574 slower 1 3.206007e+06 3.206009e+06 2.075
17 irregular 3 92 292 68 2 0.266 faster 1 3.206010e+06 3.206012e+06 2.658
17 irregular 3 93 293 52 1 0.242 slower 1 3.206014e+06 3.206015e+06 1.808
17 irregular 3 94 294 53 1 0.334 faster 0 3.206017e+06 3.206019e+06 2.335
17 irregular 3 95 295 68 1.500000e+00 0.298 faster 1 3.206021e+06 3.206023e+06 2.100
17 irregular 3 96 296 68 3 0.444 faster 1 3.206025e+06 3.206028e+06 3.558
17 irregular 3 97 297 67 1 0.503 faster 1 3.206030e+06 3.206031e+06 1.580
17 irregular 3 98 298 67 2 0.320 faster 1 3.206032e+06 3.206035e+06 2.845
17 irregular 3 99 299 66 3 0.242 faster 1 3.206036e+06 3.206040e+06 3.615
17 irregular 3 100 300 54 2 0.415 faster 0 3.206041e+06 3.206044e+06 2.721
17 regular 4 1 301 67 2.500000e+00 0.252 faster 1 3.206110e+06 3.206113e+06 3.071
17 regular 4 2 302 54 2.500000e+00 0.109 faster 0 3.206114e+06 3.206117e+06 3.179
17 regular 4 3 303 53 2.500000e+00 0.460 faster 0 3.206119e+06 3.206122e+06 2.932
17 regular 4 4 304 68 2.500000e+00 0.144 faster 1 3.206122e+06 3.206125e+06 3.088
17 regular 4 5 305 52 2.500000e+00 0.464 faster 0 3.206126e+06 3.206129e+06 2.984
17 regular 4 6 306 69 2.500000e+00 0.269 faster 1 3.206131e+06 3.206134e+06 3.048
17 regular 4 7 307 52 2.500000e+00 0.119 faster 0 3.206135e+06 3.206138e+06 2.978
17 regular 4 8 308 69 2.500000e+00 0.173 faster 1 3.206139e+06 3.206142e+06 3.138
17 regular 4 9 309 51 2.500000e+00 0.456 faster 0 3.206144e+06 3.206148e+06 3.926
17 regular 4 10 310 70 2.500000e+00 0.205 faster 1 3.206148e+06 3.206151e+06 3.030
17 regular 4 11 311 51 2.500000e+00 0.316 slower 1 3.206153e+06 3.206156e+06 3.361
17 regular 4 12 312 51 2.500000e+00 0.411 slower 1 3.206157e+06 3.206161e+06 3.487
17 regular 4 13 313 52 2.500000e+00 0.407 faster 0 3.206162e+06 3.206165e+06 3.262
17 regular 4 14 314 51 2.500000e+00 0.599 faster 0 3.206166e+06 3.206169e+06 3.126
17 regular 4 15 315 50 2.500000e+00 0.388 faster 0 3.206171e+06 3.206174e+06 3.006
17 regular 4 16 316 49 2.500000e+00 0.313 slower 1 3.206174e+06 3.206178e+06 3.151
17 regular 4 17 317 71 2.500000e+00 0.197 faster 1 3.206178e+06 3.206182e+06 3.350
17 regular 4 18 318 70 2.500000e+00 0.488 slower 0 3.206183e+06 3.206187e+06 3.166
17 regular 4 19 319 71 2.500000e+00 0.590 faster 1 3.206188e+06 3.206191e+06 3.265
17 regular 4 20 320 71 2.500000e+00 0.535 faster 1 3.206194e+06 3.206197e+06 3.123
17 regular 4 21 321 70 2.500000e+00 0.454 faster 1 3.206198e+06 3.206201e+06 3.244
17 regular 4 22 322 50 2.500000e+00 0.194 slower 1 3.206203e+06 3.206206e+06 3.189
17 regular 4 23 323 69 2.500000e+00 0.244 faster 1 3.206207e+06 3.206210e+06 3.078
17 regular 4 24 324 69 2.500000e+00 0.238 faster 1 3.206211e+06 3.206214e+06 3.251
17 regular 4 25 325 68 2.500000e+00 0.480 slower 0 3.206215e+06 3.206219e+06 3.693
17 regular 4 26 326 51 2.500000e+00 0.120 faster 0 3.206220e+06 3.206223e+06 2.971
17 regular 4 27 327 70 2.500000e+00 0.463 slower 0 3.206225e+06 3.206228e+06 3.683
17 regular 4 28 328 49 2.500000e+00 0.436 slower 1 3.206230e+06 3.206234e+06 3.696
17 regular 4 29 329 49 2.500000e+00 0.447 slower 1 3.206235e+06 3.206238e+06 3.077
17 regular 4 30 330 50 2.500000e+00 0.388 slower 1 3.206239e+06 3.206243e+06 3.473
17 regular 4 31 331 50 2.500000e+00 0.297 slower 1 3.206244e+06 3.206248e+06 3.696
17 regular 4 32 332 51 2.500000e+00 0.279 slower 1 3.206249e+06 3.206252e+06 3.443
17 regular 4 33 333 51 2.500000e+00 0.103 faster 0 3.206253e+06 3.206258e+06 4.277
17 regular 4 34 334 50 2.500000e+00 0.483 faster 0 3.206259e+06 3.206262e+06 3.145
17 regular 4 35 335 71 2.500000e+00 0.116 faster 1 3.206263e+06 3.206266e+06 3.249
17 regular 4 36 336 70 2.500000e+00 0.145 faster 1 3.206268e+06 3.206271e+06 3.218
17 regular 4 37 337 50 2.500000e+00 0.445 slower 1 3.206272e+06 3.206276e+06 4.154
17 regular 4 38 338 69 2.500000e+00 0.117 faster 1 3.206277e+06 3.206280e+06 3.131
17 regular 4 39 339 69 2.500000e+00 0.485 slower 0 3.206282e+06 3.206286e+06 4.506
17 regular 4 40 340 70 2.500000e+00 0.546 faster 1 3.206287e+06 3.206290e+06 3.050
17 regular 4 41 341 51 2.500000e+00 0.253 slower 1 3.206291e+06 3.206295e+06 3.461
17 regular 4 42 342 51 2.500000e+00 0.483 faster 0 3.206296e+06 3.206300e+06 4.215
17 regular 4 43 343 70 2.500000e+00 0.346 faster 1 3.206301e+06 3.206304e+06 3.199
17 regular 4 44 344 51 2.500000e+00 0.523 slower 1 3.206305e+06 3.206309e+06 3.831
17 regular 4 45 345 51 2.500000e+00 0.171 slower 1 3.206310e+06 3.206315e+06 4.364
17 regular 4 46 346 68 2.500000e+00 0.527 faster 1 3.206316e+06 3.206319e+06 3.021
17 regular 4 47 347 68 2.500000e+00 0.547 faster 1 3.206320e+06 3.206324e+06 3.734
17 regular 4 48 348 67 2.500000e+00 0.108 slower 0 3.206326e+06 3.206329e+06 3.966
17 regular 4 49 349 68 2.500000e+00 0.518 slower 0 3.206334e+06 3.206338e+06 3.677
17 regular 4 50 350 51 2.500000e+00 0.455 slower 1 3.206341e+06 3.206345e+06 3.871
17 regular 4 51 351 51 2.500000e+00 0.303 slower 1 3.206346e+06 3.206349e+06 3.253
17 regular 4 52 352 68 2.500000e+00 0.111 slower 0 3.206362e+06 3.206366e+06 4.031
17 regular 4 53 353 51 2.500000e+00 0.254 slower 1 3.206367e+06 3.206370e+06 3.204
17 regular 4 54 354 51 2.500000e+00 0.153 slower 1 3.206372e+06 3.206376e+06 3.722
17 regular 4 55 355 68 2.500000e+00 0.266 slower 0 3.206376e+06 3.206380e+06 3.583
17 regular 4 56 356 51 2.500000e+00 0.442 faster 0 3.206381e+06 3.206384e+06 3.262
17 regular 4 57 357 70 2.500000e+00 0.381 faster 1 3.206406e+06 3.206409e+06 3.133
17 regular 4 58 358 70 2.500000e+00 0.175 slower 0 3.206410e+06 3.206414e+06 4.017
17 regular 4 59 359 49 2.500000e+00 0.213 faster 0 3.206415e+06 3.206418e+06 3.490
17 regular 4 60 360 48 2.500000e+00 0.582 slower 1 3.206420e+06 3.206423e+06 3.069
17 regular 4 61 361 71 2.500000e+00 0.540 faster 1 3.206425e+06 3.206428e+06 3.043
17 regular 4 62 362 71 2.500000e+00 0.210 faster 1 3.206429e+06 3.206432e+06 2.997
17 regular 4 63 363 70 2.500000e+00 0.430 slower 0 3.206433e+06 3.206437e+06 3.556
17 regular 4 64 364 49 2.500000e+00 0.114 slower 1 3.206438e+06 3.206441e+06 3.564
17 regular 4 65 365 71 2.500000e+00 0.366 faster 1 3.206443e+06 3.206446e+06 3.097
17 regular 4 66 366 70 2.500000e+00 0.472 faster 1 3.206448e+06 3.206451e+06 3.312
17 regular 4 67 367 50 2.500000e+00 0.404 slower 1 3.206454e+06 3.206458e+06 3.236
17 regular 4 68 368 51 2.500000e+00 0.147 slower 1 3.206459e+06 3.206462e+06 3.246
17 regular 4 69 369 51 2.500000e+00 0.147 slower 1 3.206463e+06 3.206466e+06 3.181
17 regular 4 70 370 52 2.500000e+00 0.202 slower 1 3.206467e+06 3.206470e+06 3.300
17 regular 4 71 371 68 2.500000e+00 0.242 slower 0 3.206472e+06 3.206475e+06 3.309
17 regular 4 72 372 51 2.500000e+00 0.552 slower 1 3.206476e+06 3.206479e+06 3.220
17 regular 4 73 373 68 2.500000e+00 0.539 faster 1 3.206481e+06 3.206485e+06 3.752
17 regular 4 74 374 52 2.500000e+00 0.103 slower 1 3.206486e+06 3.206490e+06 3.398
17 regular 4 75 375 67 2.500000e+00 0.318 slower 0 3.206491e+06 3.206494e+06 3.352
17 regular 4 76 376 52 2.500000e+00 0.402 slower 1 3.206501e+06 3.206504e+06 3.068
17 regular 4 77 377 68 2.500000e+00 0.330 slower 0 3.206506e+06 3.206509e+06 3.122
17 regular 4 78 378 69 2.500000e+00 0.402 slower 0 3.206514e+06 3.206517e+06 3.189
17 regular 4 79 379 70 2.500000e+00 0.190 slower 0 3.206518e+06 3.206522e+06 3.066
17 regular 4 80 380 71 2.500000e+00 0.212 faster 1 3.206524e+06 3.206527e+06 3.109
17 regular 4 81 381 50 2.500000e+00 0.519 slower 1 3.206537e+06 3.206540e+06 3.341
17 regular 4 82 382 50 2.500000e+00 0.251 slower 1 3.206542e+06 3.206546e+06 3.939
17 regular 4 83 383 51 2.500000e+00 0.216 faster 0 3.206547e+06 3.206550e+06 3.182
17 regular 4 84 384 50 2.500000e+00 0.292 faster 0 3.206552e+06 3.206555e+06 3.183
17 regular 4 85 385 49 2.500000e+00 0.465 slower 1 3.206557e+06 3.206560e+06 3.243
17 regular 4 86 386 71 2.500000e+00 0.468 faster 1 3.206562e+06 3.206565e+06 3.120
17 regular 4 87 387 70 2.500000e+00 0.379 faster 1 3.206567e+06 3.206570e+06 3.481
17 regular 4 88 388 70 2.500000e+00 0.398 faster 1 3.206572e+06 3.206575e+06 3.575
17 regular 4 89 389 69 2.500000e+00 0.442 faster 1 3.206577e+06 3.206580e+06 3.112
17 regular 4 90 390 69 2.500000e+00 0.112 faster 1 3.206581e+06 3.206584e+06 3.406
17 regular 4 91 391 52 2.500000e+00 0.238 faster 0 3.206585e+06 3.206589e+06 3.547
17 regular 4 92 392 69 2.500000e+00 0.199 faster 1 3.206590e+06 3.206593e+06 3.183
17 regular 4 93 393 69 2.500000e+00 0.268 faster 1 3.206597e+06 3.206601e+06 3.195
17 regular 4 94 394 52 2.500000e+00 0.391 slower 1 3.206602e+06 3.206606e+06 3.365
17 regular 4 95 395 68 2.500000e+00 0.568 slower 0 3.206615e+06 3.206618e+06 3.389
17 regular 4 96 396 51 2.500000e+00 0.198 slower 1 3.206619e+06 3.206622e+06 3.032
17 regular 4 97 397 52 2.500000e+00 0.371 faster 0 3.206624e+06 3.206627e+06 3.125
17 regular 4 98 398 51 2.500000e+00 0.107 faster 0 3.206628e+06 3.206631e+06 3.311
17 regular 4 99 399 70 2.500000e+00 0.289 slower 0 3.206632e+06 3.206636e+06 3.839
17 regular 4 100 400 71 2.500000e+00 0.393 slower 0 3.206638e+06 3.206641e+06 3.278
17 irregular 5 1 401 72 1.500000e+00 0.423 faster 1 3.206756e+06 3.206760e+06 3.855
17 irregular 5 2 402 72 2 0.559 faster 1 3.206762e+06 3.206764e+06 2.444
17 irregular 5 3 403 49 2 0.388 faster 0 3.206765e+06 3.206768e+06 2.473
17 irregular 5 4 404 72 1.500000e+00 0.399 faster 1 3.206769e+06 3.206771e+06 2.022
17 irregular 5 5 405 48 3 0.592 slower 1 3.206772e+06 3.206776e+06 3.994
17 irregular 5 6 406 49 3 0.504 slower 1 3.206778e+06 3.206782e+06 4.513
17 irregular 5 7 407 49 2 0.448 slower 1 3.206783e+06 3.206787e+06 3.393
17 irregular 5 8 408 50 2.500000e+00 0.269 faster 0 3.206789e+06 3.206792e+06 3.042
17 irregular 5 9 409 71 2.500000e+00 0.103 faster 1 3.206792e+06 3.206795e+06 3.093
17 irregular 5 10 410 49 2.500000e+00 0.277 faster 0 3.206796e+06 3.206799e+06 3.026
17 irregular 5 11 411 48 2.500000e+00 0.303 faster 0 3.206800e+06 3.206804e+06 3.197
17 irregular 5 12 412 73 3 0.169 faster 1 3.206804e+06 3.206808e+06 3.632
17 irregular 5 13 413 48 1 0.583 slower 1 3.206810e+06 3.206811e+06 1.802
17 irregular 5 14 414 48 1.500000e+00 0.105 faster 0 3.206814e+06 3.206816e+06 2.114
17 irregular 5 15 415 73 1.500000e+00 0.560 faster 1 3.206818e+06 3.206820e+06 2.062
17 irregular 5 16 416 72 3 0.262 faster 1 3.206821e+06 3.206825e+06 3.465
17 irregular 5 17 417 72 1 0.352 faster 1 3.206826e+06 3.206828e+06 1.666
17 irregular 5 18 418 71 3 0.463 faster 1 3.206829e+06 3.206833e+06 3.834
17 irregular 5 19 419 49 2 0.387 slower 1 3.206834e+06 3.206837e+06 2.644
17 irregular 5 20 420 50 1.500000e+00 0.502 slower 1 3.206842e+06 3.206844e+06 2.188
17 irregular 5 21 421 70 2.500000e+00 0.373 slower 0 3.206848e+06 3.206852e+06 3.667
17 irregular 5 22 422 49 1.500000e+00 0.474 slower 1 3.206853e+06 3.206855e+06 2.178
17 irregular 5 23 423 50 2 0.167 faster 0 3.206857e+06 3.206860e+06 3.223
17 irregular 5 24 424 49 2.500000e+00 0.521 faster 0 3.206862e+06 3.206866e+06 3.775
17 irregular 5 25 425 72 2 0.396 faster 1 3.206867e+06 3.206870e+06 2.622
17 irregular 5 26 426 48 3 0.574 faster 0 3.206872e+06 3.206876e+06 4.298
17 irregular 5 27 427 47 1 0.118 faster 0 3.206877e+06 3.206879e+06 1.720
17 irregular 5 28 428 46 3 0.423 slower 1 3.206881e+06 3.206885e+06 3.611
17 irregular 5 29 429 73 1 0.501 faster 1 3.206886e+06 3.206888e+06 1.595
17 irregular 5 30 430 73 1 0.589 faster 1 3.206889e+06 3.206891e+06 1.539
17 irregular 5 31 431 72 1.500000e+00 0.462 faster 1 3.206892e+06 3.206894e+06 1.987
17 irregular 5 32 432 48 1.500000e+00 0.348 slower 1 3.206895e+06 3.206897e+06 2.155
17 irregular 5 33 433 49 2 0.478 faster 0 3.206898e+06 3.206901e+06 2.796
17 irregular 5 34 434 48 1 0.343 faster 0 3.206902e+06 3.206904e+06 1.876
17 irregular 5 35 435 47 2.500000e+00 0.314 slower 1 3.206906e+06 3.206909e+06 3.088
17 irregular 5 36 436 47 3 0.323 slower 1 3.206910e+06 3.206914e+06 3.654
17 irregular 5 37 437 48 3 0.264 slower 1 3.206915e+06 3.206919e+06 3.985
17 irregular 5 38 438 72 2 0.359 faster 1 3.206921e+06 3.206924e+06 2.643
17 irregular 5 39 439 49 2.500000e+00 0.283 slower 1 3.206925e+06 3.206928e+06 3.501
17 irregular 5 40 440 49 1 0.418 slower 1 3.206930e+06 3.206932e+06 2.367
17 irregular 5 41 441 50 1.500000e+00 0.160 faster 0 3.206933e+06 3.206936e+06 2.635
17 irregular 5 42 442 49 2 0.580 slower 1 3.206937e+06 3.206940e+06 2.958
17 irregular 5 43 443 49 1 0.481 slower 1 3.206945e+06 3.206947e+06 1.970
17 irregular 5 44 444 50 2 0.241 slower 1 3.206949e+06 3.206952e+06 2.990
17 irregular 5 45 445 70 2.500000e+00 0.277 faster 1 3.206953e+06 3.206956e+06 3.069
17 irregular 5 46 446 69 2.500000e+00 0.465 faster 1 3.206958e+06 3.206961e+06 2.983
17 irregular 5 47 447 69 1 0.119 faster 1 3.206962e+06 3.206963e+06 1.730
17 irregular 5 48 448 68 1 0.136 faster 1 3.206975e+06 3.206976e+06 1.608
17 irregular 5 49 449 68 2 0.149 faster 1 3.206979e+06 3.206982e+06 2.636
17 irregular 5 50 450 67 3 0.440 faster 1 3.206984e+06 3.206987e+06 3.654
17 irregular 5 51 451 67 2.500000e+00 0.147 slower 0 3.207006e+06 3.207010e+06 4.284
17 irregular 5 52 452 68 1.500000e+00 0.547 faster 1 3.207012e+06 3.207014e+06 2.028
17 irregular 5 53 453 67 2 0.376 faster 1 3.207015e+06 3.207017e+06 2.484
17 irregular 5 54 454 53 3 0.406 faster 0 3.207018e+06 3.207022e+06 3.659
17 irregular 5 55 455 68 2.500000e+00 0.307 faster 1 3.207023e+06 3.207026e+06 2.991
17 irregular 5 56 456 53 1.500000e+00 0.153 faster 0 3.207027e+06 3.207029e+06 2.174
17 irregular 5 57 457 68 1.500000e+00 0.284 faster 1 3.207030e+06 3.207032e+06 2.000
17 irregular 5 58 458 52 1.500000e+00 0.332 faster 0 3.207034e+06 3.207036e+06 2.226
17 irregular 5 59 459 51 3 0.199 slower 1 3.207037e+06 3.207041e+06 4.053
17 irregular 5 60 460 68 2 0.213 faster 1 3.207042e+06 3.207044e+06 2.656
17 irregular 5 61 461 52 2 0.121 faster 0 3.207045e+06 3.207048e+06 2.599
17 irregular 5 62 462 69 3 0.248 faster 1 3.207048e+06 3.207052e+06 3.612
17 irregular 5 63 463 52 2.500000e+00 0.576 faster 0 3.207053e+06 3.207056e+06 3.068
17 irregular 5 64 464 69 1.500000e+00 0.389 faster 1 3.207057e+06 3.207060e+06 2.095
17 irregular 5 65 465 51 2 0.141 faster 0 3.207060e+06 3.207063e+06 2.585
17 irregular 5 66 466 70 1 0.572 faster 1 3.207064e+06 3.207067e+06 2.483
17 irregular 5 67 467 69 3 0.158 faster 1 3.207068e+06 3.207072e+06 3.660
17 irregular 5 68 468 69 1.500000e+00 0.183 faster 1 3.207075e+06 3.207077e+06 2.204
17 irregular 5 69 469 68 1 0.485 slower 0 3.207079e+06 3.207080e+06 1.543
17 irregular 5 70 470 51 1 0.300 slower 1 3.207081e+06 3.207083e+06 1.651
17 irregular 5 71 471 51 1 0.520 slower 1 3.207085e+06 3.207086e+06 1.646
17 irregular 5 72 472 52 2 0.422 slower 1 3.207087e+06 3.207090e+06 2.476
17 irregular 5 73 473 68 3 0.174 slower 0 3.207101e+06 3.207105e+06 4.254
17 irregular 5 74 474 51 1.500000e+00 0.568 slower 1 3.207106e+06 3.207108e+06 2.141
17 irregular 5 75 475 68 2.500000e+00 0.257 slower 0 3.207110e+06 3.207112e+06 2.730
17 irregular 5 76 476 51 1 0.410 faster 0 3.207114e+06 3.207116e+06 1.921
17 irregular 5 77 477 70 1 0.193 faster 1 3.207123e+06 3.207125e+06 1.628
17 irregular 5 78 478 50 2.500000e+00 0.429 slower 1 3.207130e+06 3.207133e+06 3.628
17 irregular 5 79 479 69 1.500000e+00 0.240 faster 1 3.207136e+06 3.207138e+06 2.306
17 irregular 5 80 480 51 2.500000e+00 0.479 faster 0 3.207140e+06 3.207143e+06 2.987
17 irregular 5 81 481 70 3 0.565 faster 1 3.207146e+06 3.207149e+06 3.539
17 irregular 5 82 482 51 1 0.394 faster 0 3.207162e+06 3.207163e+06 1.669
17 irregular 5 83 483 70 2 0.326 faster 1 3.207165e+06 3.207168e+06 2.548
17 irregular 5 84 484 50 2.500000e+00 0.429 faster 0 3.207169e+06 3.207172e+06 3.042
17 irregular 5 85 485 71 1 0.502 faster 1 3.207173e+06 3.207175e+06 1.669
17 irregular 5 86 486 70 3 0.423 slower 0 3.207184e+06 3.207189e+06 5.178
17 irregular 5 87 487 71 2 0.101 faster 1 3.207201e+06 3.207204e+06 2.506
17 irregular 5 88 488 49 3 0.551 slower 1 3.207205e+06 3.207209e+06 3.605
17 irregular 5 89 489 70 2 0.301 slower 0 3.207211e+06 3.207213e+06 2.680
17 irregular 5 90 490 71 2.500000e+00 0.101 faster 1 3.207215e+06 3.207218e+06 3.492
17 irregular 5 91 491 71 2.500000e+00 0.546 faster 1 3.207220e+06 3.207223e+06 3.069
17 irregular 5 92 492 50 1.500000e+00 0.426 faster 0 3.207225e+06 3.207227e+06 2.159
17 irregular 5 93 493 49 1.500000e+00 0.515 slower 1 3.207229e+06 3.207231e+06 2.748
17 irregular 5 94 494 71 1.500000e+00 0.393 faster 1 3.207236e+06 3.207238e+06 2.078
17 irregular 5 95 495 70 2.500000e+00 0.292 faster 1 3.207240e+06 3.207243e+06 3.191
17 irregular 5 96 496 50 1 0.159 slower 1 3.207245e+06 3.207246e+06 1.753
17 irregular 5 97 497 69 3 0.537 faster 1 3.207248e+06 3.207252e+06 4.037
17 irregular 5 98 498 69 1 0.196 faster 1 3.207253e+06 3.207255e+06 1.558
17 irregular 5 99 499 52 3 0.215 slower 1 3.207255e+06 3.207259e+06 3.978
17 irregular 5 100 500 68 2 0.139 faster 1 3.207261e+06 3.207264e+06 2.645
17 regular 6 1 501 50 1.500000e+00 0.153 faster 0 1.727086e+05 1.727110e+05 2.461
17 regular 6 2 502 48 1.500000e+00 0.199 faster 0 1.727119e+05 1.727141e+05 2.230
17 regular 6 3 503 74 1.500000e+00 0.240 faster 1 1.727168e+05 1.727187e+05 1.942
17 regular 6 4 504 46 1.500000e+00 0.146 slower 1 1.727195e+05 1.727215e+05 2.014
17 regular 6 5 505 72 1.500000e+00 0.583 faster 1 1.727227e+05 1.727247e+05 1.993
17 regular 6 6 506 72 1.500000e+00 0.529 faster 1 1.727259e+05 1.727279e+05 2.051
17 regular 6 7 507 50 1.500000e+00 0.143 faster 0 1.727287e+05 1.727315e+05 2.740
17 regular 6 8 508 72 1.500000e+00 0.355 faster 1 1.727324e+05 1.727347e+05 2.225
17 regular 6 9 509 48 1.500000e+00 0.464 slower 1 1.727358e+05 1.727379e+05 2.153
17 regular 6 10 510 70 1.500000e+00 0.147 faster 1 1.727391e+05 1.727411e+05 2.042
17 regular 6 11 511 70 1.500000e+00 0.580 faster 1 1.727424e+05 1.727446e+05 2.259
17 regular 6 12 512 51 1.500000e+00 0.475 slower 1 1.727464e+05 1.727485e+05 2.070
17 regular 6 13 513 69 1.500000e+00 0.504 slower 0 1.727496e+05 1.727522e+05 2.572
17 regular 6 14 514 50 1.500000e+00 0.275 slower 1 1.727531e+05 1.727553e+05 2.237
17 regular 6 15 515 69 1.500000e+00 0.323 slower 0 1.727563e+05 1.727582e+05 1.933
17 regular 6 16 516 70 1.500000e+00 0.271 faster 1 1.727591e+05 1.727613e+05 2.178
17 regular 6 17 517 70 1.500000e+00 0.426 faster 1 1.727624e+05 1.727645e+05 2.141
17 regular 6 18 518 51 1.500000e+00 0.522 slower 1 1.727657e+05 1.727680e+05 2.366
17 regular 6 19 519 69 1.500000e+00 0.377 faster 1 1.727691e+05 1.727712e+05 2.160
17 regular 6 20 520 68 1.500000e+00 0.274 faster 1 1.727721e+05 1.727742e+05 2.044
17 regular 6 21 521 52 1.500000e+00 0.251 faster 0 1.727751e+05 1.727773e+05 2.189
17 regular 6 22 522 51 1.500000e+00 0.400 faster 0 1.727783e+05 1.727804e+05 2.143
17 regular 6 23 523 70 1.500000e+00 0.339 faster 1 1.727814e+05 1.727843e+05 2.923
17 regular 6 24 524 51 1.500000e+00 0.511 slower 1 1.727855e+05 1.727878e+05 2.310
17 regular 6 25 525 51 1.500000e+00 0.581 slower 1 1.727890e+05 1.727912e+05 2.199
17 regular 6 26 526 52 1.500000e+00 0.524 faster 0 1.727924e+05 1.727946e+05 2.233
17 regular 6 27 527 69 1.500000e+00 0.168 faster 1 1.727954e+05 1.727975e+05 2.068
17 regular 6 28 528 69 1.500000e+00 0.146 faster 1 1.727983e+05 1.728006e+05 2.331
17 regular 6 29 529 68 1.500000e+00 0.434 slower 0 1.728017e+05 1.728043e+05 2.665
17 regular 6 30 530 51 1.500000e+00 0.267 faster 0 1.728052e+05 1.728083e+05 3.056
17 regular 6 31 531 50 1.500000e+00 0.217 slower 1 1.728091e+05 1.728117e+05 2.519
17 regular 6 32 532 50 1.500000e+00 0.198 faster 0 1.728125e+05 1.728148e+05 2.274
17 regular 6 33 533 49 1.500000e+00 0.575 slower 1 1.728160e+05 1.728187e+05 2.748
17 regular 6 34 534 70 1.500000e+00 0.207 faster 1 1.728196e+05 1.728217e+05 2.158
17 regular 6 35 535 50 1.500000e+00 0.106 slower 1 1.728225e+05 1.728250e+05 2.478
17 regular 6 36 536 69 1.500000e+00 0.146 faster 1 1.728257e+05 1.728277e+05 1.991
17 regular 6 37 537 69 1.500000e+00 0.584 faster 1 1.728289e+05 1.728309e+05 1.986
17 regular 6 38 538 52 1.500000e+00 0.316 faster 0 1.728319e+05 1.728339e+05 2.049
17 regular 6 39 539 69 1.500000e+00 0.391 faster 1 1.728350e+05 1.728369e+05 1.959
17 regular 6 40 540 51 1.500000e+00 0.119 faster 0 1.728377e+05 1.728400e+05 2.323
17 regular 6 41 541 70 1.500000e+00 0.596 faster 1 1.728413e+05 1.728434e+05 2.173
17 regular 6 42 542 69 1.500000e+00 0.441 faster 1 1.728450e+05 1.728471e+05 2.073
17 regular 6 43 543 69 1.500000e+00 0.161 faster 1 1.728485e+05 1.728505e+05 2.094
17 regular 6 44 544 52 1.500000e+00 0.515 faster 0 1.728521e+05 1.728543e+05 2.146
17 regular 6 45 545 69 1.500000e+00 0.300 faster 1 1.728552e+05 1.728573e+05 2.065
17 regular 6 46 546 51 1.500000e+00 0.595 faster 0 1.728589e+05 1.728612e+05 2.295
17 regular 6 47 547 50 1.500000e+00 0.566 faster 0 1.728624e+05 1.728646e+05 2.245
17 regular 6 48 548 49 1.500000e+00 0.344 faster 0 1.728656e+05 1.728680e+05 2.443
17 regular 6 49 549 72 1.500000e+00 0.585 faster 1 1.728693e+05 1.728717e+05 2.445
17 regular 6 50 550 71 1.500000e+00 0.267 faster 1 1.728726e+05 1.728747e+05 2.080
17 regular 6 51 551 49 1.500000e+00 0.241 slower 1 1.728756e+05 1.728778e+05 2.209
17 regular 6 52 552 50 1.500000e+00 0.505 faster 0 1.728789e+05 1.728810e+05 2.128
17 regular 6 53 553 49 1.500000e+00 0.219 faster 0 1.728819e+05 1.728840e+05 2.077
17 regular 6 54 554 72 1.500000e+00 0.297 faster 1 1.728849e+05 1.728871e+05 2.233
17 regular 6 55 555 72 1.500000e+00 0.139 faster 1 1.728880e+05 1.728900e+05 2.030
17 regular 6 56 556 49 1.500000e+00 0.186 slower 1 1.728908e+05 1.728929e+05 2.122
17 regular 6 57 557 49 1.500000e+00 0.118 slower 1 1.728937e+05 1.728960e+05 2.296
17 regular 6 58 558 70 1.500000e+00 0.326 slower 0 1.728970e+05 1.728997e+05 2.767
17 regular 6 59 559 49 1.500000e+00 0.336 slower 1 1.729007e+05 1.729029e+05 2.192
17 regular 6 60 560 71 1.500000e+00 0.124 faster 1 1.729037e+05 1.729058e+05 2.117
17 regular 6 61 561 70 1.500000e+00 0.161 faster 1 1.729070e+05 1.729091e+05 2.044
17 regular 6 62 562 50 1.500000e+00 0.287 faster 0 1.729100e+05 1.729125e+05 2.459
17 regular 6 63 563 49 1.500000e+00 0.584 slower 1 1.729137e+05 1.729157e+05 2.000
17 regular 6 64 564 70 1.500000e+00 0.401 faster 1 1.729167e+05 1.729188e+05 2.136
17 regular 6 65 565 70 1.500000e+00 0.484 faster 1 1.729200e+05 1.729222e+05 2.198
17 regular 6 66 566 51 1.500000e+00 0.161 slower 1 1.729230e+05 1.729254e+05 2.477
17 regular 6 67 567 51 1.500000e+00 0.131 faster 0 1.729262e+05 1.729286e+05 2.385
17 regular 6 68 568 70 1.500000e+00 0.580 faster 1 1.729298e+05 1.729318e+05 2.029
17 regular 6 69 569 69 1.500000e+00 0.381 faster 1 1.729329e+05 1.729350e+05 2.171
17 regular 6 70 570 51 1.500000e+00 0.311 faster 0 1.729360e+05 1.729380e+05 2.064
17 regular 6 71 571 70 1.500000e+00 0.146 faster 1 1.729388e+05 1.729408e+05 1.998
17 regular 6 72 572 51 1.500000e+00 0.525 faster 0 1.729420e+05 1.729442e+05 2.198
17 regular 6 73 573 70 1.500000e+00 0.239 faster 1 1.729451e+05 1.729473e+05 2.266
17 regular 6 74 574 70 1.500000e+00 0.576 faster 1 1.729485e+05 1.729511e+05 2.511
17 regular 6 75 575 69 1.500000e+00 0.117 faster 1 1.729518e+05 1.729541e+05 2.311
17 regular 6 76 576 69 1.500000e+00 0.533 faster 1 1.729553e+05 1.729574e+05 2.076
17 regular 6 77 577 52 1.500000e+00 0.517 faster 0 1.729585e+05 1.729606e+05 2.109
17 regular 6 78 578 51 1.500000e+00 0.263 faster 0 1.729615e+05 1.729645e+05 2.921
17 regular 6 79 579 50 1.500000e+00 0.209 faster 0 1.729653e+05 1.729680e+05 2.729
17 regular 6 80 580 49 1.500000e+00 0.526 slower 1 1.729692e+05 1.729728e+05 3.630
17 regular 6 81 581 71 1.500000e+00 0.318 faster 1 1.729738e+05 1.729758e+05 1.993
17 regular 6 82 582 50 1.500000e+00 0.217 slower 1 1.729766e+05 1.729790e+05 2.414
17 regular 6 83 583 70 1.500000e+00 0.389 slower 0 1.729801e+05 1.729825e+05 2.445
17 regular 6 84 584 71 1.500000e+00 0.292 faster 1 1.729834e+05 1.729859e+05 2.489
17 regular 6 85 585 50 1.500000e+00 0.600 slower 1 1.729872e+05 1.729894e+05 2.252
17 regular 6 86 586 50 1.500000e+00 0.227 slower 1 1.729903e+05 1.729927e+05 2.405
17 regular 6 87 587 51 1.500000e+00 0.439 slower 1 1.729938e+05 1.729960e+05 2.274
17 regular 6 88 588 51 1.500000e+00 0.358 slower 1 1.729970e+05 1.730002e+05 3.134
17 regular 6 89 589 68 1.500000e+00 0.573 faster 1 1.730014e+05 1.730034e+05 2.067
17 regular 6 90 590 68 1.500000e+00 0.202 faster 1 1.730043e+05 1.730065e+05 2.197
17 regular 6 91 591 53 1.500000e+00 0.450 faster 0 1.730076e+05 1.730097e+05 2.179
17 regular 6 92 592 52 1.500000e+00 0.326 faster 0 1.730107e+05 1.730128e+05 2.142
17 regular 6 93 593 69 1.500000e+00 0.368 faster 1 1.730138e+05 1.730161e+05 2.233
17 regular 6 94 594 51 1.500000e+00 0.258 faster 0 1.730170e+05 1.730195e+05 2.482
17 regular 6 95 595 70 1.500000e+00 0.204 faster 1 1.730203e+05 1.730227e+05 2.402
17 regular 6 96 596 69 1.500000e+00 0.209 slower 0 1.730236e+05 1.730266e+05 3.049
17 regular 6 97 597 50 1.500000e+00 0.471 slower 1 1.730277e+05 1.730300e+05 2.337
17 regular 6 98 598 50 1.500000e+00 0.150 slower 1 1.730308e+05 1.730330e+05 2.136
17 regular 6 99 599 69 1.500000e+00 0.262 slower 0 1.730339e+05 1.730360e+05 2.096
17 regular 6 100 600 70 1.500000e+00 0.321 faster 1 1.730369e+05 1.730393e+05 2.355
17 irregular 7 1 601 70 1 0.271 faster 1 1.730504e+05 1.730525e+05 2.074
17 irregular 7 2 602 51 2 0.442 slower 1 1.730542e+05 1.730568e+05 2.679
17 irregular 7 3 603 51 1.500000e+00 0.413 slower 1 1.730579e+05 1.730601e+05 2.185
17 irregular 7 4 604 52 1.500000e+00 0.474 faster 0 1.730612e+05 1.730637e+05 2.508
17 irregular 7 5 605 69 3 0.553 slower 0 1.730649e+05 1.730681e+05 3.175
17 irregular 7 6 606 70 3 0.586 slower 0 1.730693e+05 1.730734e+05 4.078
17 irregular 7 7 607 49 3 0.373 slower 1 1.730744e+05 1.730780e+05 3.649
17 irregular 7 8 608 71 2.500000e+00 0.384 faster 1 1.730797e+05 1.730828e+05 3.146
17 irregular 7 9 609 70 2 0.139 faster 1 1.730836e+05 1.730866e+05 3.016
17 irregular 7 10 610 70 2.500000e+00 0.373 faster 1 1.730877e+05 1.730912e+05 3.539
17 irregular 7 11 611 69 1 0.568 faster 1 1.730924e+05 1.730951e+05 2.690
17 irregular 7 12 612 69 2 0.338 faster 1 1.730961e+05 1.730988e+05 2.708
17 irregular 7 13 613 52 2.500000e+00 0.245 faster 0 1.730998e+05 1.731039e+05 4.093
17 irregular 7 14 614 69 2 0.143 faster 1 1.731047e+05 1.731076e+05 2.896
17 irregular 7 15 615 69 1 0.477 faster 1 1.731087e+05 1.731105e+05 1.738
17 irregular 7 16 616 68 1.500000e+00 0.268 faster 1 1.731114e+05 1.731144e+05 3.004
17 irregular 7 17 617 52 2 0.436 slower 1 1.731155e+05 1.731181e+05 2.596
17 irregular 7 18 618 67 2.500000e+00 0.272 faster 1 1.731190e+05 1.731231e+05 4.106
17 irregular 7 19 619 53 3 0.172 slower 1 1.731240e+05 1.731276e+05 3.651
17 irregular 7 20 620 66 1.500000e+00 0.251 none 2 1.731286e+05 1.731331e+05 4.499
17 irregular 7 21 621 66 2.500000e+00 0.108 none 2 1.731339e+05 1.731394e+05 5.500
17 irregular 7 22 622 66 3 0.335 faster 1 1.731404e+05 1.731440e+05 3.655
17 irregular 7 23 623 66 2.500000e+00 0.296 slower 0 1.731450e+05 1.731487e+05 3.722
17 irregular 7 24 624 67 2 0.402 faster 1 1.731498e+05 1.731528e+05 3.039
17 irregular 7 25 625 66 2.500000e+00 0.363 faster 1 1.731538e+05 1.731570e+05 3.134
17 irregular 7 26 626 54 2.500000e+00 0.302 faster 0 1.731579e+05 1.731612e+05 3.330
17 irregular 7 27 627 53 3 0.119 none 2 1.731620e+05 1.731680e+05 5.999
17 irregular 7 28 628 67 1.500000e+00 0.156 faster 1 1.731689e+05 1.731711e+05 2.204
17 irregular 7 29 629 54 1.500000e+00 0.292 slower 1 1.731720e+05 1.731745e+05 2.491
17 irregular 7 30 630 54 2.500000e+00 0.274 slower 1 1.731754e+05 1.731786e+05 3.208
17 irregular 7 31 631 65 2 0.496 faster 1 1.731798e+05 1.731824e+05 2.649
17 irregular 7 32 632 55 1.500000e+00 0.321 slower 1 1.731834e+05 1.731858e+05 2.329
17 irregular 7 33 633 56 1.500000e+00 0.246 slower 1 1.731867e+05 1.731895e+05 2.867
17 irregular 7 34 634 64 1 0.512 slower 0 1.731924e+05 1.731943e+05 1.867
17 irregular 7 35 635 55 3 0.448 faster 0 1.731958e+05 1.731998e+05 3.970
17 irregular 7 36 636 66 2 0.126 faster 1 1.732010e+05 1.732038e+05 2.732
17 irregular 7 37 637 55 1 0.533 faster 0 1.732062e+05 1.732083e+05 2.102
17 irregular 7 38 638 54 3 0.466 faster 0 1.732100e+05 1.732146e+05 4.637
17 irregular 7 39 639 53 2 0.480 faster 0 1.732157e+05 1.732190e+05 3.216
17 irregular 7 40 640 68 1 0.369 slower 0 1.732200e+05 1.732225e+05 2.500
17 irregular 7 41 641 69 1 0.426 faster 1 1.732242e+05 1.732258e+05 1.600
17 irregular 7 42 642 69 3 0.496 slower 0 1.732279e+05 1.732310e+05 3.143
17 irregular 7 43 643 70 3 0.562 faster 1 1.732333e+05 1.732370e+05 3.698
17 irregular 7 44 644 51 2 0.553 slower 1 1.732383e+05 1.732413e+05 3.076
17 irregular 7 45 645 51 1 0.514 slower 1 1.732425e+05 1.732445e+05 1.964
17 irregular 7 46 646 52 2 0.589 slower 1 1.732458e+05 1.732488e+05 3.062
17 irregular 7 47 647 68 3 0.447 faster 1 1.732500e+05 1.732536e+05 3.646
17 irregular 7 48 648 67 1 0.582 slower 0 1.732548e+05 1.732572e+05 2.307
17 irregular 7 49 649 52 2 0.459 slower 1 1.732587e+05 1.732614e+05 2.692
17 irregular 7 50 650 52 1 0.501 slower 1 1.732626e+05 1.732646e+05 1.981
17 irregular 7 51 651 53 2.500000e+00 0.416 faster 0 1.732692e+05 1.732734e+05 4.192
17 irregular 7 52 652 68 1.500000e+00 0.273 slower 0 1.732743e+05 1.732766e+05 2.286
17 irregular 7 53 653 51 1 0.346 slower 1 1.732776e+05 1.732793e+05 1.663
17 irregular 7 54 654 69 1.500000e+00 0.180 faster 1 1.732801e+05 1.732823e+05 2.169
17 irregular 7 55 655 52 2.500000e+00 0.329 slower 1 1.732833e+05 1.732870e+05 3.709
17 irregular 7 56 656 68 1.500000e+00 0.187 slower 0 1.732878e+05 1.732902e+05 2.371
17 irregular 7 57 657 51 1.500000e+00 0.287 faster 0 1.732911e+05 1.732934e+05 2.251
17 irregular 7 58 658 50 2.500000e+00 0.293 slower 1 1.732948e+05 1.732988e+05 3.944
17 irregular 7 59 659 51 2 0.406 slower 1 1.733004e+05 1.733036e+05 3.183
17 irregular 7 60 660 51 2 0.102 slower 1 1.733043e+05 1.733072e+05 2.867
17 irregular 7 61 661 68 3 0.382 faster 1 1.733082e+05 1.733119e+05 3.673
17 irregular 7 62 662 68 1 0.276 faster 1 1.733133e+05 1.733154e+05 2.108
17 irregular 7 63 663 53 3 0.446 slower 1 1.733165e+05 1.733203e+05 3.778
17 irregular 7 64 664 53 1.500000e+00 0.235 faster 0 1.733217e+05 1.733238e+05 2.089
17 irregular 7 65 665 68 2 0.238 slower 0 1.733250e+05 1.733278e+05 2.830
17 irregular 7 66 666 69 3 0.383 faster 1 1.733293e+05 1.733328e+05 3.540
17 irregular 7 67 667 52 1 0.521 slower 1 1.733345e+05 1.733363e+05 1.767
17 irregular 7 68 668 68 2 0.487 slower 0 1.733375e+05 1.733404e+05 2.960
17 irregular 7 69 669 51 1 0.364 slower 1 1.733415e+05 1.733439e+05 2.419
17 irregular 7 70 670 68 1.500000e+00 0.498 faster 1 1.733450e+05 1.733473e+05 2.295
17 irregular 7 71 671 52 1.500000e+00 0.521 slower 1 1.733485e+05 1.733506e+05 2.068
17 irregular 7 72 672 53 1 0.598 faster 0 1.733518e+05 1.733538e+05 1.983
17 irregular 7 73 673 52 2.500000e+00 0.368 slower 1 1.733549e+05 1.733580e+05 3.134
17 irregular 7 74 674 52 2.500000e+00 0.418 slower 1 1.733595e+05 1.733626e+05 3.066
17 irregular 7 75 675 67 1 0.541 slower 0 1.733638e+05 1.733655e+05 1.635
17 irregular 7 76 676 68 3 0.118 slower 0 1.733664e+05 1.733700e+05 3.640
17 irregular 7 77 677 51 1 0.438 slower 1 1.733724e+05 1.733742e+05 1.776
17 irregular 7 78 678 51 1.500000e+00 0.129 slower 1 1.733750e+05 1.733773e+05 2.330
17 irregular 7 79 679 52 1 0.143 slower 1 1.733781e+05 1.733797e+05 1.629
17 irregular 7 80 680 68 2.500000e+00 0.177 slower 0 1.733806e+05 1.733838e+05 3.193
17 irregular 7 81 681 51 3 0.495 slower 1 1.733849e+05 1.733889e+05 3.948
17 irregular 7 82 682 68 2 0.575 faster 1 1.733901e+05 1.733929e+05 2.784
17 irregular 7 83 683 52 2 0.349 slower 1 1.733939e+05 1.733965e+05 2.635
17 irregular 7 84 684 53 3 0.230 slower 1 1.733974e+05 1.734010e+05 3.580
17 irregular 7 85 685 53 3 0.596 slower 1 1.734023e+05 1.734060e+05 3.784
17 irregular 7 86 686 54 1 0.102 faster 0 1.734079e+05 1.734114e+05 3.443
17 irregular 7 87 687 67 1 0.340 slower 0 1.734124e+05 1.734155e+05 3.129
17 irregular 7 88 688 52 1.500000e+00 0.436 faster 0 1.734166e+05 1.734197e+05 3.078
17 irregular 7 89 689 69 2 0.296 slower 0 1.734207e+05 1.734239e+05 3.203
17 irregular 7 90 690 70 1.500000e+00 0.210 faster 1 1.734247e+05 1.734272e+05 2.435
17 irregular 7 91 691 70 1.500000e+00 0.418 faster 1 1.734287e+05 1.734308e+05 2.141
17 irregular 7 92 692 51 3 0.430 slower 1 1.734320e+05 1.734358e+05 3.855
17 irregular 7 93 693 69 1.500000e+00 0.408 faster 1 1.734369e+05 1.734392e+05 2.263
17 irregular 7 94 694 52 2.500000e+00 0.132 slower 1 1.734409e+05 1.734392e+05 -1.776
17 irregular 7 95 695 68 2.500000e+00 0.496 faster 1 1.734447e+05 1.734483e+05 3.654
17 irregular 7 96 696 67 2.500000e+00 0.389 faster 1 1.734497e+05 1.734535e+05 3.775
17 irregular 7 97 697 67 3 0.168 slower 0 1.734543e+05 1.734586e+05 4.265
17 irregular 7 98 698 52 2 0.597 slower 1 1.734607e+05 1.734635e+05 2.756
17 irregular 7 99 699 53 2.500000e+00 0.190 none 2 1.734644e+05 1.734699e+05 5.499
17 irregular 7 100 700 67 2.500000e+00 0.524 slower 0 1.734710e+05 1.734743e+05 3.262
17 regular 8 1 701 68 2 0.485 faster 1 1.735262e+05 1.735287e+05 2.550
17 regular 8 2 702 52 2 0.248 faster 0 1.735356e+05 1.735382e+05 2.581
17 regular 8 3 703 51 2 0.220 faster 0 1.735411e+05 1.735442e+05 3.020
17 regular 8 4 704 50 2 0.113 faster 0 1.735457e+05 1.735484e+05 2.729
17 regular 8 5 705 71 2 0.123 faster 1 1.735492e+05 1.735521e+05 2.935
17 regular 8 6 706 50 2 0.501 faster 0 1.735533e+05 1.735559e+05 2.634
17 regular 8 7 707 49 2 0.217 slower 1 1.735571e+05 1.735600e+05 2.839
17 regular 8 8 708 49 2 0.238 slower 1 1.735608e+05 1.735635e+05 2.714
17 regular 8 9 709 70 2 0.378 faster 1 1.735646e+05 1.735672e+05 2.690
17 regular 8 10 710 50 2 0.130 faster 0 1.735680e+05 1.735707e+05 2.693
17 regular 8 11 711 49 2 0.196 slower 1 1.735715e+05 1.735742e+05 2.635
17 regular 8 12 712 50 2 0.519 slower 1 1.735753e+05 1.735782e+05 2.895
17 regular 8 13 713 70 2 0.346 slower 0 1.735798e+05 1.735829e+05 3.094
17 regular 8 14 714 71 2 0.579 faster 1 1.735845e+05 1.735872e+05 2.612
17 regular 8 15 715 50 2 0.111 slower 1 1.735879e+05 1.735909e+05 3.028
17 regular 8 16 716 50 2 0.584 slower 1 1.735922e+05 1.735948e+05 2.656
17 regular 8 17 717 51 2 0.379 slower 1 1.735958e+05 1.736006e+05 4.759
17 regular 8 18 718 51 2 0.123 faster 0 1.736014e+05 1.736042e+05 2.860
17 regular 8 19 719 50 2 0.397 slower 1 1.736053e+05 1.736095e+05 4.193
17 regular 8 20 720 51 2 0.527 faster 0 1.736106e+05 1.736133e+05 2.629
17 regular 8 21 721 50 2 0.179 faster 0 1.736141e+05 1.736167e+05 2.594
17 regular 8 22 722 49 2 0.335 slower 1 1.736176e+05 1.736204e+05 2.768
17 regular 8 23 723 71 2 0.274 faster 1 1.736213e+05 1.736240e+05 2.696
17 regular 8 24 724 50 2 0.231 faster 0 1.736249e+05 1.736281e+05 3.244
17 regular 8 25 725 71 2 0.420 faster 1 1.736297e+05 1.736325e+05 2.780
17 regular 8 26 726 49 2 0.341 slower 1 1.736335e+05 1.736362e+05 2.757
17 regular 8 27 727 50 2 0.507 slower 1 1.736373e+05 1.736405e+05 3.149
17 regular 8 28 728 70 2 0.148 faster 1 1.736413e+05 1.736447e+05 3.434
17 regular 8 29 729 69 2 0.258 faster 1 1.736456e+05 1.736483e+05 2.674
17 regular 8 30 730 51 2 0.107 slower 1 1.736490e+05 1.736526e+05 3.597
17 regular 8 31 731 52 2 0.276 slower 1 1.736548e+05 1.736575e+05 2.771
17 regular 8 32 732 52 2 0.136 slower 1 1.736583e+05 1.736611e+05 2.781
17 regular 8 33 733 67 2 0.450 faster 1 1.736622e+05 1.736648e+05 2.618
17 regular 8 34 734 53 2 0.290 faster 0 1.736657e+05 1.736686e+05 2.855
17 regular 8 35 735 52 2 0.111 faster 0 1.736698e+05 1.736725e+05 2.691
17 regular 8 36 736 51 2 0.532 faster 0 1.736737e+05 1.736764e+05 2.670
17 regular 8 37 737 70 2 0.303 faster 1 1.736773e+05 1.736799e+05 2.589
17 regular 8 38 738 51 2 0.393 faster 0 1.736809e+05 1.736839e+05 2.986
17 regular 8 39 739 50 2 0.117 faster 0 1.736847e+05 1.736871e+05 2.425
17 regular 8 40 740 71 2 0.167 faster 1 1.736879e+05 1.736905e+05 2.636
17 regular 8 41 741 71 2 0.435 faster 1 1.736916e+05 1.736943e+05 2.697
17 regular 8 42 742 70 2 0.429 faster 1 1.736954e+05 1.736987e+05 3.347
17 regular 8 43 743 70 2 0.261 slower 0 1.736996e+05 1.737025e+05 2.922
17 regular 8 44 744 49 2 0.278 slower 1 1.737085e+05 1.737112e+05 2.673
17 regular 8 45 745 50 2 0.185 slower 1 1.737120e+05 1.737158e+05 3.787
17 regular 8 46 746 50 2 0.270 slower 1 1.737167e+05 1.737193e+05 2.608
17 regular 8 47 747 69 2 0.309 faster 1 1.737208e+05 1.737236e+05 2.792
17 regular 8 48 748 69 2 0.470 slower 0 1.737247e+05 1.737274e+05 2.678
17 regular 8 49 749 70 2 0.129 slower 0 1.737281e+05 1.737308e+05 2.721
17 regular 8 50 750 49 2 0.111 slower 1 1.737316e+05 1.737341e+05 2.492
17 regular 8 51 751 70 2 0.379 slower 0 1.737351e+05 1.737378e+05 2.657
17 regular 8 52 752 71 2 0.547 slower 0 1.737389e+05 1.737417e+05 2.725
17 regular 8 53 753 48 2 0.451 slower 1 1.737428e+05 1.737466e+05 3.883
17 regular 8 54 754 48 2 0.175 slower 1 1.737476e+05 1.737502e+05 2.636
17 regular 8 55 755 49 2 0.497 slower 1 1.737515e+05 1.737540e+05 2.521
17 regular 8 56 756 71 2 0.141 faster 1 1.737548e+05 1.737576e+05 2.872
17 regular 8 57 757 70 2 0.429 faster 1 1.737587e+05 1.737612e+05 2.489
17 regular 8 58 758 70 2 0.147 faster 1 1.737621e+05 1.737648e+05 2.668
17 regular 8 59 759 69 2 0.364 faster 1 1.737663e+05 1.737688e+05 2.539
17 regular 8 60 760 69 2 0.241 slower 0 1.737809e+05 1.737835e+05 2.558
17 regular 8 61 761 70 2 0.190 slower 0 1.737948e+05 1.737974e+05 2.573
17 regular 8 62 762 71 2 0.575 faster 1 1.737988e+05 1.738014e+05 2.585
17 regular 8 63 763 50 2 0.113 slower 1 1.738021e+05 1.738047e+05 2.570
17 regular 8 64 764 50 2 0.204 slower 1 1.738055e+05 1.738085e+05 3.003
17 regular 8 65 765 69 2 0.286 slower 0 1.738095e+05 1.738120e+05 2.546
17 regular 8 66 766 50 2 0.210 slower 1 1.738129e+05 1.738158e+05 2.916
17 regular 8 67 767 70 2 0.495 slower 0 1.738169e+05 1.738198e+05 2.914
17 regular 8 68 768 49 2 0.228 slower 1 1.738212e+05 1.738238e+05 2.578
17 regular 8 69 769 70 2 0.512 faster 1 1.738253e+05 1.738279e+05 2.556
17 regular 8 70 770 50 2 0.260 slower 1 1.738288e+05 1.738316e+05 2.797
17 regular 8 71 771 69 2 0.393 slower 0 1.738371e+05 1.738399e+05 2.726
17 regular 8 72 772 50 2 0.547 faster 0 1.738428e+05 1.738457e+05 2.909
17 regular 8 73 773 71 2 0.504 slower 0 1.738470e+05 1.738499e+05 2.867
17 regular 8 74 774 72 2 0.389 slower 0 1.738509e+05 1.738539e+05 2.990
17 regular 8 75 775 73 2 0.500 faster 1 1.738802e+05 1.738830e+05 2.776
17 regular 8 76 776 73 2 0.463 faster 1 1.738938e+05 1.738964e+05 2.587
17 regular 8 77 777 72 2 0.581 slower 0 1.738976e+05 1.739002e+05 2.573
17 regular 8 78 778 73 2 0.593 faster 1 1.739014e+05 1.739040e+05 2.619
17 regular 8 79 779 47 2 0.318 slower 1 1.739050e+05 1.739075e+05 2.534
17 regular 8 80 780 48 2 0.233 slower 1 1.739084e+05 1.739111e+05 2.670
17 regular 8 81 781 72 2 0.324 faster 1 1.739120e+05 1.739146e+05 2.537
17 regular 8 82 782 71 2 0.545 faster 1 1.739157e+05 1.739183e+05 2.575
17 regular 8 83 783 71 2 0.228 slower 0 1.739192e+05 1.739218e+05 2.585
17 regular 8 84 784 48 2 0.211 slower 1 1.739230e+05 1.739256e+05 2.614
17 regular 8 85 785 71 2 0.279 slower 0 1.739265e+05 1.739296e+05 3.091
17 regular 8 86 786 72 2 0.142 faster 1 1.739304e+05 1.739332e+05 2.812
17 regular 8 87 787 72 2 0.528 faster 1 1.739344e+05 1.739370e+05 2.634
17 regular 8 88 788 71 2 0.413 faster 1 1.739459e+05 1.739493e+05 3.363
17 regular 8 89 789 71 2 0.517 slower 0 1.739508e+05 1.739538e+05 3.035
17 regular 8 90 790 48 2 0.404 slower 1 1.739592e+05 1.739620e+05 2.831
17 regular 8 91 791 71 2 0.325 slower 0 1.739653e+05 1.739679e+05 2.536
17 regular 8 92 792 72 2 0.346 slower 0 1.739694e+05 1.739720e+05 2.588
17 regular 8 93 793 73 2 0.397 faster 1 1.739747e+05 1.739774e+05 2.718
17 regular 8 94 794 73 2 0.344 faster 1 1.739784e+05 1.739810e+05 2.606
17 regular 8 95 795 48 2 0.138 slower 1 1.739817e+05 1.739843e+05 2.542
17 regular 8 96 796 48 2 0.449 slower 1 1.739854e+05 1.739881e+05 2.706
17 regular 8 97 797 49 2 0.111 slower 1 1.739892e+05 1.739918e+05 2.586
17 regular 8 98 798 49 2 0.288 slower 1 1.739933e+05 1.739958e+05 2.508
17 regular 8 99 799 70 2 0.325 faster 1 1.739969e+05 1.739995e+05 2.568
17 regular 8 100 800 50 2 0.584 slower 1 1.740085e+05 1.740111e+05 2.632
17 irregular 9 1 801 51 2.500000e+00 0.354 faster 0 1.741701e+05 1.741732e+05 3.147
17 irregular 9 2 802 70 1 0.192 faster 1 1.741741e+05 1.741756e+05 1.563
17 irregular 9 3 803 70 1 0.481 faster 1 1.741767e+05 1.741785e+05 1.768
17 irregular 9 4 804 69 3 0.425 faster 1 1.741796e+05 1.741833e+05 3.711
17 irregular 9 5 805 69 1.500000e+00 0.204 faster 1 1.741842e+05 1.741862e+05 2.016
17 irregular 9 6 806 52 3 0.123 faster 0 1.741873e+05 1.741908e+05 3.538
17 irregular 9 7 807 69 1 0.218 faster 1 1.741921e+05 1.741946e+05 2.478
17 irregular 9 8 808 69 3 0.545 faster 1 1.741958e+05 1.741993e+05 3.514
17 irregular 9 9 809 68 2 0.389 faster 1 1.742010e+05 1.742037e+05 2.677
17 irregular 9 10 810 68 1.500000e+00 0.312 faster 1 1.742050e+05 1.742071e+05 2.126
17 irregular 9 11 811 53 3 0.493 slower 1 1.742083e+05 1.742122e+05 3.965
17 irregular 9 12 812 67 2 0.266 faster 1 1.742132e+05 1.742159e+05 2.739
17 irregular 9 13 813 54 2 0.136 slower 1 1.742172e+05 1.742201e+05 2.991
17 irregular 9 14 814 54 1.500000e+00 0.582 slower 1 1.742214e+05 1.742237e+05 2.332
17 irregular 9 15 815 55 1 0.236 slower 1 1.742250e+05 1.742267e+05 1.761
17 irregular 9 16 816 65 2.500000e+00 0.364 slower 0 1.742295e+05 1.742328e+05 3.245
17 irregular 9 17 817 54 2 0.142 none 2 1.742336e+05 1.742386e+05 4.999
17 irregular 9 18 818 54 1 0.288 slower 1 1.742395e+05 1.742411e+05 1.512
17 irregular 9 19 819 65 3 0.239 slower 0 1.742430e+05 1.742466e+05 3.594
17 irregular 9 20 820 54 2.500000e+00 0.244 slower 1 1.742480e+05 1.742515e+05 3.431
17 irregular 9 21 821 66 3 0.251 faster 1 1.742529e+05 1.742565e+05 3.650
17 irregular 9 22 822 55 1 0.105 faster 0 1.742578e+05 1.742601e+05 2.308
17 irregular 9 23 823 66 1 0.396 slower 0 1.742611e+05 1.742628e+05 1.729
17 irregular 9 24 824 67 3 0.486 faster 1 1.742640e+05 1.742676e+05 3.625
17 irregular 9 25 825 67 1.500000e+00 0.290 faster 1 1.742689e+05 1.742712e+05 2.257
17 irregular 9 26 826 54 3 0.201 slower 1 1.742726e+05 1.742761e+05 3.555
17 irregular 9 27 827 66 1.500000e+00 0.327 slower 0 1.742771e+05 1.742803e+05 3.133
17 irregular 9 28 828 67 2.500000e+00 0.314 faster 1 1.742812e+05 1.742844e+05 3.200
17 irregular 9 29 829 66 2 0.367 slower 0 1.742860e+05 1.742889e+05 2.947
17 irregular 9 30 830 53 1.500000e+00 0.314 slower 1 1.742933e+05 1.742955e+05 2.247
17 irregular 9 31 831 53 1 0.113 none 2 1.742963e+05 1.743003e+05 3.999
17 irregular 9 32 832 53 3 0.155 slower 1 1.743012e+05 1.743048e+05 3.690
17 irregular 9 33 833 54 2 0.226 slower 1 1.743076e+05 1.743102e+05 2.616
17 irregular 9 34 834 66 2 0.113 none 2 1.743109e+05 1.743159e+05 5.000
17 irregular 9 35 835 66 3 0.150 none 2 1.743168e+05 1.743228e+05 5.999
17 irregular 9 36 836 54 2 0.257 none 2 1.743237e+05 1.743287e+05 4.999
17 irregular 9 37 837 54 2.500000e+00 0.580 none 2 1.743299e+05 1.743354e+05 5.500
17 irregular 9 38 838 54 1 0.368 faster 0 1.743517e+05 1.743535e+05 1.751
17 irregular 9 39 839 67 3 0.401 faster 1 1.743549e+05 1.743587e+05 3.786
17 irregular 9 40 840 66 1 0.425 slower 0 1.743602e+05 1.743619e+05 1.712
17 irregular 9 41 841 53 2 0.340 slower 1 1.743629e+05 1.743655e+05 2.563
17 irregular 9 42 842 67 3 0.532 slower 0 1.743667e+05 1.743699e+05 3.194
17 irregular 9 43 843 52 2.500000e+00 0.420 faster 0 1.743710e+05 1.743741e+05 3.171
17 irregular 9 44 844 51 2 0.599 slower 1 1.743815e+05 1.743842e+05 2.770
17 irregular 9 45 845 68 1.500000e+00 0.499 slower 0 1.743865e+05 1.743887e+05 2.125
17 irregular 9 46 846 51 1 0.595 slower 1 1.743910e+05 1.743926e+05 1.610
17 irregular 9 47 847 69 1 0.234 faster 1 1.743935e+05 1.743952e+05 1.715
17 irregular 9 48 848 52 3 0.166 slower 1 1.743960e+05 1.743996e+05 3.597
17 irregular 9 49 849 68 3 0.460 slower 0 1.744012e+05 1.744047e+05 3.583
17 irregular 9 50 850 69 2 0.253 faster 1 1.744061e+05 1.744089e+05 2.827
17 irregular 9 51 851 68 1 0.387 slower 0 1.744100e+05 1.744118e+05 1.855
17 irregular 9 52 852 69 2 0.182 slower 0 1.744131e+05 1.744161e+05 2.998
17 irregular 9 53 853 70 1.500000e+00 0.226 slower 0 1.744170e+05 1.744192e+05 2.156
17 irregular 9 54 854 71 2.500000e+00 0.266 slower 0 1.744201e+05 1.744232e+05 3.125
17 irregular 9 55 855 48 3 0.338 slower 1 1.744242e+05 1.744277e+05 3.501
17 irregular 9 56 856 72 1.500000e+00 0.430 slower 0 1.744288e+05 1.744310e+05 2.154
17 irregular 9 57 857 73 2.500000e+00 0.308 slower 0 1.744320e+05 1.744352e+05 3.212
17 irregular 9 58 858 74 2 0.271 slower 0 1.744361e+05 1.744388e+05 2.715
17 irregular 9 59 859 45 2 0.226 slower 1 1.744401e+05 1.744426e+05 2.573
17 irregular 9 60 860 46 3 0.102 slower 1 1.744439e+05 1.744474e+05 3.518
17 irregular 9 61 861 46 1.500000e+00 0.275 slower 1 1.744483e+05 1.744504e+05 2.112
17 irregular 9 62 862 47 1.500000e+00 0.389 slower 1 1.744515e+05 1.744536e+05 2.123
17 irregular 9 63 863 47 1.500000e+00 0.434 slower 1 1.744547e+05 1.744567e+05 2.031
17 irregular 9 64 864 72 2.500000e+00 0.588 faster 1 1.744580e+05 1.744610e+05 3.082
17 irregular 9 65 865 72 1 0.265 faster 1 1.744621e+05 1.744639e+05 1.840
17 irregular 9 66 866 49 1.500000e+00 0.571 slower 1 1.744651e+05 1.744672e+05 2.057
17 irregular 9 67 867 49 2.500000e+00 0.141 slower 1 1.744680e+05 1.744711e+05 3.092
17 irregular 9 68 868 70 2 0.396 slower 0 1.744722e+05 1.744748e+05 2.689
17 irregular 9 69 869 71 3 0.214 faster 1 1.744761e+05 1.744797e+05 3.589
17 irregular 9 70 870 71 1.500000e+00 0.585 faster 1 1.744810e+05 1.744835e+05 2.563
17 irregular 9 71 871 50 1.500000e+00 0.396 slower 1 1.744846e+05 1.744868e+05 2.237
17 irregular 9 72 872 50 2 0.358 slower 1 1.744879e+05 1.744906e+05 2.703
17 irregular 9 73 873 51 3 0.591 slower 1 1.744923e+05 1.744957e+05 3.438
17 irregular 9 74 874 51 1.500000e+00 0.248 none 2 1.744966e+05 1.745011e+05 4.499
17 irregular 9 75 875 51 2 0.216 slower 1 1.745020e+05 1.745047e+05 2.662
17 irregular 9 76 876 52 3 0.247 slower 1 1.745056e+05 1.745091e+05 3.488
17 irregular 9 77 877 68 2.500000e+00 0.156 slower 0 1.745099e+05 1.745130e+05 3.075
17 irregular 9 78 878 69 2.500000e+00 0.366 slower 0 1.745145e+05 1.745175e+05 3.055
17 irregular 9 79 879 70 1 0.165 slower 0 1.745183e+05 1.745200e+05 1.698
17 irregular 9 80 880 71 1.500000e+00 0.596 slower 0 1.745213e+05 1.745241e+05 2.753
17 irregular 9 81 881 48 3 0.428 slower 1 1.745252e+05 1.745287e+05 3.509
17 irregular 9 82 882 71 2 0.538 slower 0 1.745299e+05 1.745326e+05 2.642
17 irregular 9 83 883 48 2 0.195 slower 1 1.745334e+05 1.745361e+05 2.674
17 irregular 9 84 884 72 1.500000e+00 0.401 slower 0 1.745371e+05 1.745394e+05 2.268
17 irregular 9 85 885 47 1 0.106 slower 1 1.745406e+05 1.745424e+05 1.798
17 irregular 9 86 886 48 2.500000e+00 0.518 slower 1 1.745436e+05 1.745465e+05 2.936
17 irregular 9 87 887 48 1 0.498 slower 1 1.745477e+05 1.745495e+05 1.800
17 irregular 9 88 888 49 1 0.123 slower 1 1.745506e+05 1.745522e+05 1.543
17 irregular 9 89 889 49 1.500000e+00 0.414 slower 1 1.745532e+05 1.745557e+05 2.430
17 irregular 9 90 890 50 2.500000e+00 0.400 slower 1 1.745568e+05 1.745599e+05 3.131
17 irregular 9 91 891 70 2.500000e+00 0.402 faster 1 1.745614e+05 1.745646e+05 3.154
17 irregular 9 92 892 51 2.500000e+00 0.257 slower 1 1.745655e+05 1.745689e+05 3.468
17 irregular 9 93 893 69 2 0.133 slower 0 1.745697e+05 1.745726e+05 2.826
17 irregular 9 94 894 70 2.500000e+00 0.586 slower 0 1.745738e+05 1.745768e+05 2.986
17 irregular 9 95 895 49 1 0.279 slower 1 1.745777e+05 1.745793e+05 1.583
17 irregular 9 96 896 70 1 0.504 slower 0 1.745805e+05 1.745820e+05 1.560
17 irregular 9 97 897 49 1.500000e+00 0.568 slower 1 1.745833e+05 1.745852e+05 1.928
17 irregular 9 98 898 49 2.500000e+00 0.284 slower 1 1.745862e+05 1.745892e+05 3.048
17 irregular 9 99 899 70 2.500000e+00 0.208 slower 0 1.745901e+05 1.745930e+05 2.964
17 irregular 9 100 900 49 2.500000e+00 0.488 slower 1 1.745942e+05 1.745972e+05 3.084
17 regular 10 1 901 49 3 0.260 faster 0 1.758621e+05 1.758659e+05 3.797
17 regular 10 2 902 72 3 0.598 faster 1 1.758678e+05 1.758713e+05 3.499
17 regular 10 3 903 49 3 0.448 faster 0 1.758724e+05 1.758759e+05 3.497
17 regular 10 4 904 72 3 0.267 faster 1 1.758772e+05 1.758809e+05 3.619
17 regular 10 5 905 48 3 0.536 faster 0 1.758826e+05 1.758862e+05 3.604
17 regular 10 6 906 47 3 0.308 slower 1 1.758878e+05 1.758914e+05 3.623
17 regular 10 7 907 48 3 0.489 slower 1 1.758939e+05 1.758975e+05 3.566
17 regular 10 8 908 48 3 0.462 slower 1 1.759003e+05 1.759041e+05 3.865
17 regular 10 9 909 49 3 0.365 slower 1 1.759056e+05 1.759097e+05 4.108
17 regular 10 10 910 71 3 0.242 faster 1 1.759106e+05 1.759143e+05 3.648
17 regular 10 11 911 70 3 0.164 faster 1 1.759156e+05 1.759199e+05 4.377
17 regular 10 12 912 70 3 0.560 faster 1 1.759215e+05 1.759254e+05 3.926
17 regular 10 13 913 51 3 0.309 faster 0 1.759278e+05 1.759317e+05 3.815
17 regular 10 14 914 70 3 0.505 faster 1 1.759335e+05 1.759373e+05 3.796
17 regular 10 15 915 70 3 0.558 faster 1 1.759385e+05 1.759423e+05 3.829
17 regular 10 16 916 69 3 0.263 faster 1 1.759432e+05 1.759469e+05 3.686
17 regular 10 17 917 69 3 0.156 faster 1 1.759500e+05 1.759536e+05 3.584
17 regular 10 18 918 68 3 0.463 faster 1 1.759552e+05 1.759588e+05 3.612
17 regular 10 19 919 68 3 0.143 slower 0 1.759602e+05 1.759643e+05 4.034
17 regular 10 20 920 69 3 0.391 slower 0 1.759658e+05 1.759696e+05 3.781
17 regular 10 21 921 50 3 0.473 slower 1 1.759714e+05 1.759756e+05 4.131
17 regular 10 22 922 51 3 0.468 slower 1 1.759818e+05 1.759856e+05 3.844
17 regular 10 23 923 69 3 0.554 faster 1 1.759868e+05 1.759906e+05 3.784
17 regular 10 24 924 52 3 0.165 faster 0 1.759930e+05 1.759966e+05 3.564
17 regular 10 25 925 51 3 0.231 slower 1 1.759987e+05 1.760022e+05 3.561
17 regular 10 26 926 69 3 0.317 slower 0 1.760086e+05 1.760124e+05 3.772
17 regular 10 27 927 50 3 0.523 slower 1 1.760246e+05 1.760282e+05 3.602
17 regular 10 28 928 69 3 0.261 slower 0 1.760291e+05 1.760326e+05 3.495
17 regular 10 29 929 70 3 0.493 faster 1 1.760337e+05 1.760374e+05 3.646
17 regular 10 30 930 50 3 0.571 slower 1 1.760422e+05 1.760458e+05 3.621
17 regular 10 31 931 51 3 0.505 faster 0 1.760469e+05 1.760505e+05 3.521
17 regular 10 32 932 70 3 0.528 slower 0 1.760535e+05 1.760577e+05 4.225
17 regular 10 33 933 71 3 0.478 slower 0 1.760588e+05 1.760626e+05 3.785
17 regular 10 34 934 48 3 0.337 slower 1 1.760728e+05 1.760765e+05 3.649
17 regular 10 35 935 72 3 0.457 faster 1 1.760937e+05 1.760973e+05 3.588
17 regular 10 36 936 71 3 0.477 slower 0 1.760984e+05 1.761019e+05 3.496
17 regular 10 37 937 72 3 0.405 faster 1 1.761039e+05 1.761078e+05 3.874
17 regular 10 38 938 72 3 0.164 faster 1 1.761086e+05 1.761121e+05 3.528
17 regular 10 39 939 49 3 0.280 slower 1 1.761138e+05 1.761173e+05 3.501
17 regular 10 40 940 49 3 0.252 slower 1 1.761281e+05 1.761316e+05 3.468
17 regular 10 41 941 70 3 0.541 faster 1 1.761333e+05 1.761369e+05 3.594
17 regular 10 42 942 50 3 0.237 slower 1 1.761381e+05 1.761417e+05 3.587
17 regular 10 43 943 69 3 0.198 slower 0 1.761440e+05 1.761477e+05 3.752
17 regular 10 44 944 70 3 0.385 faster 1 1.761504e+05 1.761545e+05 4.025
17 regular 10 45 945 70 3 0.558 slower 0 1.761561e+05 1.761602e+05 4.111
17 regular 10 46 946 71 3 0.473 faster 1 1.761617e+05 1.761654e+05 3.707
17 regular 10 47 947 50 3 0.316 slower 1 1.761668e+05 1.761708e+05 3.949
17 regular 10 48 948 70 3 0.245 faster 1 1.761724e+05 1.761760e+05 3.659
17 regular 10 49 949 69 3 0.323 faster 1 1.761785e+05 1.761822e+05 3.689
17 regular 10 50 950 51 3 0.403 faster 0 1.761843e+05 1.761883e+05 3.949
17 regular 10 51 951 50 3 0.276 slower 1 1.762043e+05 1.762083e+05 4.020
17 regular 10 52 952 51 3 0.438 slower 1 1.762119e+05 1.762155e+05 3.627
17 regular 10 53 953 69 3 0.201 slower 0 1.762168e+05 1.762207e+05 3.934
17 regular 10 54 954 50 3 0.152 slower 1 1.762372e+05 1.762410e+05 3.815
17 regular 10 55 955 69 3 0.187 slower 0 1.762419e+05 1.762455e+05 3.637
17 regular 10 56 956 50 3 0.422 slower 1 1.762466e+05 1.762501e+05 3.496
17 regular 10 57 957 50 3 0.545 slower 1 1.762512e+05 1.762551e+05 3.846
17 regular 10 58 958 69 3 0.322 faster 1 1.762561e+05 1.762598e+05 3.767
17 regular 10 59 959 69 3 0.579 faster 1 1.762939e+05 1.762980e+05 4.021
17 regular 10 60 960 52 3 0.327 faster 0 1.762989e+05 1.763026e+05 3.692
17 regular 10 61 961 69 3 0.411 faster 1 1.763058e+05 1.763097e+05 3.858
17 regular 10 62 962 51 3 0.291 slower 1 1.763541e+05 1.763579e+05 3.769
17 regular 10 63 963 52 3 0.389 slower 1 1.763589e+05 1.763629e+05 3.989
17 regular 10 64 964 68 3 0.300 slower 0 1.763638e+05 1.763676e+05 3.757
17 regular 10 65 965 69 3 0.170 faster 1 1.763684e+05 1.763723e+05 3.922
17 regular 10 66 966 52 3 0.457 slower 1 1.763990e+05 1.764026e+05 3.618
17 regular 10 67 967 52 3 0.514 slower 1 1.764037e+05 1.764080e+05 4.304
17 regular 10 68 968 67 3 0.498 slower 0 1.764092e+05 1.764130e+05 3.776
17 regular 10 69 969 68 3 0.218 slower 0 1.764238e+05 1.764277e+05 3.912
17 regular 10 70 970 51 3 0.424 none 2 1.764628e+05 1.764688e+05 6.000
17 regular 10 71 971 51 3 0.114 faster 0 1.764732e+05 1.764790e+05 5.812
17 regular 10 72 972 50 3 0.346 slower 1 1.764807e+05 1.764840e+05 3.342
17 regular 10 73 973 50 3 0.180 slower 1 1.765059e+05 1.765097e+05 3.830
17 regular 10 74 974 69 3 0.331 slower 0 1.766253e+05 1.766290e+05 3.717
17 regular 10 75 975 50 3 0.408 slower 1 1.766409e+05 1.766448e+05 3.873
17 regular 10 76 976 50 3 0.220 slower 1 1.766462e+05 1.766498e+05 3.519
17 regular 10 77 977 51 3 0.171 slower 1 1.766510e+05 1.766545e+05 3.515
17 regular 10 78 978 51 3 0.120 slower 1 1.766554e+05 1.766588e+05 3.403
17 regular 10 79 979 68 3 0.516 slower 0 1.766600e+05 1.766634e+05 3.429
17 regular 10 80 980 51 3 0.239 slower 1 1.766643e+05 1.766677e+05 3.444
17 regular 10 81 981 51 3 0.176 slower 1 1.766690e+05 1.766725e+05 3.431
17 regular 10 82 982 68 3 0.350 slower 0 1.766735e+05 1.766769e+05 3.423
17 regular 10 83 983 69 3 0.392 slower 0 1.766779e+05 1.766813e+05 3.413
17 regular 10 84 984 50 3 0.143 slower 1 1.766821e+05 1.766855e+05 3.342
17 regular 10 85 985 70 3 0.588 slower 0 1.766867e+05 1.766901e+05 3.421
17 regular 10 86 986 71 3 0.406 slower 0 1.766918e+05 1.766958e+05 3.953
17 regular 10 87 987 48 3 0.571 slower 1 1.767014e+05 1.767049e+05 3.428
17 regular 10 88 988 49 3 0.226 slower 1 1.767063e+05 1.767097e+05 3.391
17 regular 10 89 989 49 3 0.430 slower 1 1.767114e+05 1.767148e+05 3.355
17 regular 10 90 990 70 3 0.305 slower 0 1.767177e+05 1.767211e+05 3.407
17 regular 10 91 991 49 3 0.253 slower 1 1.767220e+05 1.767260e+05 3.923
17 regular 10 92 992 49 3 0.305 slower 1 1.767281e+05 1.767315e+05 3.434
17 regular 10 93 993 50 3 0.327 slower 1 1.767339e+05 1.767374e+05 3.527
17 regular 10 94 994 70 3 0.354 slower 0 1.767384e+05 1.767419e+05 3.528
17 regular 10 95 995 49 3 0.344 slower 1 1.767429e+05 1.767464e+05 3.486
17 regular 10 96 996 50 3 0.147 slower 1 1.767472e+05 1.767507e+05 3.471
17 regular 10 97 997 70 3 0.416 slower 0 1.767517e+05 1.767552e+05 3.438
17 regular 10 98 998 71 3 0.265 faster 1 1.767563e+05 1.767600e+05 3.762
17 regular 10 99 999 70 3 0.177 faster 1 1.767653e+05 1.767688e+05 3.530
17 regular 10 100 1000 70 3 0.196 faster 1 1.767708e+05 1.767749e+05 4.092
