subNo condition blockNo trialNo trialID currentFrequency cueTargetInterval randomPreCueInterval response responseAccuracy startTime responseTime RT
16 regular 1 1 1 71 2.500000e+00 0.127 faster 1 3.192845e+06 3.192848e+06 3.249
16 regular 1 2 2 71 2.500000e+00 0.590 faster 1 3.192850e+06 3.192853e+06 3.232
16 regular 1 3 3 51 2.500000e+00 0.266 slower 1 3.192854e+06 3.192857e+06 3.409
16 regular 1 4 4 69 2.500000e+00 0.293 faster 1 3.192858e+06 3.192861e+06 3.125
16 regular 1 5 5 67 2.500000e+00 0.187 slower 0 3.192862e+06 3.192865e+06 3.380
16 regular 1 6 6 51 2.500000e+00 0.280 faster 0 3.192866e+06 3.192870e+06 3.234
16 regular 1 7 7 71 2.500000e+00 0.168 faster 1 3.192870e+06 3.192874e+06 3.180
16 regular 1 8 8 49 2.500000e+00 0.528 slower 1 3.192875e+06 3.192879e+06 3.327
16 regular 1 9 9 51 2.500000e+00 0.404 faster 0 3.192880e+06 3.192883e+06 3.074
16 regular 1 10 10 49 2.500000e+00 0.296 slower 1 3.192884e+06 3.192887e+06 3.374
16 regular 1 11 11 49 2.500000e+00 0.585 faster 0 3.192888e+06 3.192892e+06 3.106
16 regular 1 12 12 73 2.500000e+00 0.586 faster 1 3.192893e+06 3.192896e+06 3.188
16 regular 1 13 13 71 2.500000e+00 0.150 faster 1 3.192897e+06 3.192900e+06 3.285
16 regular 1 14 14 71 2.500000e+00 0.572 faster 1 3.192901e+06 3.192905e+06 3.378
16 regular 1 15 15 50 2.500000e+00 0.230 slower 1 3.192905e+06 3.192909e+06 3.186
16 regular 1 16 16 50 2.500000e+00 0.103 slower 1 3.192910e+06 3.192913e+06 3.175
16 regular 1 17 17 51 2.500000e+00 0.463 slower 1 3.192914e+06 3.192917e+06 3.275
16 regular 1 18 18 51 2.500000e+00 0.421 slower 1 3.192918e+06 3.192922e+06 3.144
16 regular 1 19 19 52 2.500000e+00 0.330 slower 1 3.192923e+06 3.192926e+06 3.179
16 regular 1 20 20 68 2.500000e+00 0.291 slower 0 3.192927e+06 3.192930e+06 2.990
16 regular 1 21 21 51 2.500000e+00 0.349 slower 1 3.192931e+06 3.192934e+06 3.402
16 regular 1 22 22 68 2.500000e+00 0.384 slower 0 3.192935e+06 3.192939e+06 3.128
16 regular 1 23 23 69 2.500000e+00 0.323 faster 1 3.192940e+06 3.192943e+06 3.409
16 regular 1 24 24 69 2.500000e+00 0.352 faster 1 3.192944e+06 3.192947e+06 3.249
16 regular 1 25 25 52 2.500000e+00 0.215 slower 1 3.192948e+06 3.192951e+06 3.288
16 regular 1 26 26 52 2.500000e+00 0.565 slower 1 3.192953e+06 3.192956e+06 3.235
16 regular 1 27 27 67 2.500000e+00 0.468 faster 1 3.192957e+06 3.192961e+06 3.205
16 regular 1 28 28 67 2.500000e+00 0.381 slower 0 3.192962e+06 3.192965e+06 3.213
16 regular 1 29 29 52 2.500000e+00 0.184 faster 0 3.192966e+06 3.192969e+06 3.246
16 regular 1 30 30 51 2.500000e+00 0.310 slower 1 3.192970e+06 3.192973e+06 2.878
16 regular 1 31 31 68 2.500000e+00 0.509 faster 1 3.192974e+06 3.192977e+06 3.236
16 regular 1 32 32 52 2.500000e+00 0.599 slower 1 3.192979e+06 3.192982e+06 3.452
16 regular 1 33 33 53 2.500000e+00 0.307 faster 0 3.192983e+06 3.192986e+06 3.259
16 regular 1 34 34 68 2.500000e+00 0.465 faster 1 3.192988e+06 3.192991e+06 3.258
16 regular 1 35 35 52 2.500000e+00 0.119 slower 1 3.192992e+06 3.192995e+06 3.345
16 regular 1 36 36 53 2.500000e+00 0.377 slower 1 3.192997e+06 3.193000e+06 3.207
16 regular 1 37 37 53 2.500000e+00 0.502 slower 1 3.193002e+06 3.193005e+06 3.265
16 regular 1 38 38 66 2.500000e+00 0.321 slower 0 3.193006e+06 3.193010e+06 3.281
16 regular 1 39 39 67 2.500000e+00 0.503 slower 0 3.193011e+06 3.193014e+06 3.418
16 regular 1 40 40 68 2.500000e+00 0.198 slower 0 3.193015e+06 3.193018e+06 3.079
16 regular 1 41 41 69 2.500000e+00 0.239 faster 1 3.193019e+06 3.193023e+06 3.196
16 regular 1 42 42 69 2.500000e+00 0.595 faster 1 3.193024e+06 3.193027e+06 3.194
16 regular 1 43 43 52 2.500000e+00 0.358 slower 1 3.193028e+06 3.193031e+06 3.129
16 regular 1 44 44 52 2.500000e+00 0.214 faster 0 3.193032e+06 3.193035e+06 3.127
16 regular 1 45 45 51 2.500000e+00 0.362 slower 1 3.193038e+06 3.193041e+06 3.312
16 regular 1 46 46 68 2.500000e+00 0.219 faster 1 3.193043e+06 3.193046e+06 3.179
16 regular 1 47 47 52 2.500000e+00 0.407 faster 0 3.193047e+06 3.193051e+06 3.236
16 regular 1 48 48 69 2.500000e+00 0.368 slower 0 3.193052e+06 3.193055e+06 3.362
16 regular 1 49 49 50 2.500000e+00 0.383 faster 0 3.193057e+06 3.193060e+06 3.309
16 regular 1 50 50 49 2.500000e+00 0.507 faster 0 3.193061e+06 3.193064e+06 3.306
16 regular 1 51 51 72 2.500000e+00 0.136 faster 1 3.193065e+06 3.193069e+06 3.372
16 regular 1 52 52 71 2.500000e+00 0.261 faster 1 3.193070e+06 3.193073e+06 3.707
16 regular 1 53 53 49 2.500000e+00 0.116 faster 0 3.193076e+06 3.193080e+06 3.319
16 regular 1 54 54 48 2.500000e+00 0.533 faster 0 3.193081e+06 3.193084e+06 3.249
16 regular 1 55 55 73 2.500000e+00 0.429 faster 1 3.193086e+06 3.193089e+06 3.482
16 regular 1 56 56 48 2.500000e+00 0.340 slower 1 3.193091e+06 3.193094e+06 3.239
16 regular 1 57 57 48 2.500000e+00 0.402 slower 1 3.193095e+06 3.193098e+06 3.346
16 regular 1 58 58 49 2.500000e+00 0.206 slower 1 3.193099e+06 3.193103e+06 4.264
16 regular 1 59 59 71 2.500000e+00 0.231 slower 0 3.193104e+06 3.193108e+06 3.524
16 regular 1 60 60 48 2.500000e+00 0.277 slower 1 3.193109e+06 3.193112e+06 3.369
16 regular 1 61 61 71 2.500000e+00 0.442 faster 1 3.193113e+06 3.193116e+06 3.226
16 regular 1 62 62 49 2.500000e+00 0.139 slower 1 3.193117e+06 3.193120e+06 3.149
16 regular 1 63 63 50 2.500000e+00 0.215 slower 1 3.193121e+06 3.193124e+06 3.350
16 regular 1 64 64 70 2.500000e+00 0.107 faster 1 3.193125e+06 3.193128e+06 3.227
16 regular 1 65 65 51 2.500000e+00 0.270 slower 1 3.193130e+06 3.193134e+06 3.865
16 regular 1 66 66 69 2.500000e+00 0.544 faster 1 3.193135e+06 3.193138e+06 3.170
16 regular 1 67 67 68 2.500000e+00 0.576 faster 1 3.193140e+06 3.193143e+06 3.259
16 regular 1 68 68 68 2.500000e+00 0.519 slower 0 3.193144e+06 3.193148e+06 3.377
16 regular 1 69 69 69 2.500000e+00 0.508 slower 0 3.193149e+06 3.193152e+06 3.405
16 regular 1 70 70 70 2.500000e+00 0.491 slower 0 3.193153e+06 3.193157e+06 3.465
16 regular 1 71 71 71 2.500000e+00 0.113 faster 1 3.193158e+06 3.193161e+06 3.182
16 regular 1 72 72 70 2.500000e+00 0.516 slower 0 3.193162e+06 3.193165e+06 3.262
16 regular 1 73 73 49 2.500000e+00 0.581 slower 1 3.193167e+06 3.193165e+06 -1.773
16 regular 1 74 74 71 2.500000e+00 0.584 faster 1 3.193171e+06 3.193174e+06 3.357
16 regular 1 75 75 70 2.500000e+00 0.402 faster 1 3.193175e+06 3.193179e+06 3.438
16 regular 1 76 76 50 2.500000e+00 0.300 faster 0 3.193180e+06 3.193183e+06 3.427
16 regular 1 77 77 49 2.500000e+00 0.242 slower 1 3.193184e+06 3.193188e+06 3.692
16 regular 1 78 78 70 2.500000e+00 0.241 faster 1 3.193189e+06 3.193192e+06 3.147
16 regular 1 79 79 70 2.500000e+00 0.345 faster 1 3.193194e+06 3.193197e+06 3.214
16 regular 1 80 80 51 2.500000e+00 0.345 faster 0 3.193198e+06 3.193201e+06 3.239
16 regular 1 81 81 50 2.500000e+00 0.163 faster 0 3.193202e+06 3.193205e+06 3.171
16 regular 1 82 82 71 2.500000e+00 0.519 slower 0 3.193206e+06 3.193210e+06 3.514
16 regular 1 83 83 72 2.500000e+00 0.233 faster 1 3.193210e+06 3.193214e+06 3.257
16 regular 1 84 84 48 2.500000e+00 0.524 slower 1 3.193215e+06 3.193219e+06 3.273
16 regular 1 85 85 71 2.500000e+00 0.467 faster 1 3.193220e+06 3.193223e+06 3.163
16 regular 1 86 86 71 2.500000e+00 0.479 faster 1 3.193224e+06 3.193227e+06 3.076
16 regular 1 87 87 50 2.500000e+00 0.327 slower 1 3.193228e+06 3.193231e+06 3.334
16 regular 1 88 88 50 2.500000e+00 0.295 slower 1 3.193232e+06 3.193236e+06 3.595
16 regular 1 89 89 69 2.500000e+00 0.211 slower 0 3.193237e+06 3.193240e+06 3.675
16 regular 1 90 90 50 2.500000e+00 0.233 slower 1 3.193241e+06 3.193245e+06 3.250
16 regular 1 91 91 50 2.500000e+00 0.132 faster 0 3.193245e+06 3.193248e+06 3.140
16 regular 1 92 92 71 2.500000e+00 0.436 slower 0 3.193249e+06 3.193253e+06 3.049
16 regular 1 93 93 72 2.500000e+00 0.590 faster 1 3.193254e+06 3.193257e+06 3.450
16 regular 1 94 94 71 2.500000e+00 0.404 faster 1 3.193258e+06 3.193261e+06 3.212
16 regular 1 95 95 49 2.500000e+00 0.573 faster 0 3.193263e+06 3.193266e+06 3.465
16 regular 1 96 96 48 2.500000e+00 0.312 slower 1 3.193267e+06 3.193271e+06 3.507
16 regular 1 97 97 71 2.500000e+00 0.521 faster 1 3.193274e+06 3.193277e+06 3.156
16 regular 1 98 98 71 2.500000e+00 0.416 faster 1 3.193282e+06 3.193286e+06 3.285
16 regular 1 99 99 50 2.500000e+00 0.440 slower 1 3.193289e+06 3.193292e+06 3.396
16 regular 1 100 100 50 2.500000e+00 0.190 faster 0 3.193293e+06 3.193297e+06 3.337
16 irregular 2 1 101 49 3 0.309 faster 0 3.193365e+06 3.193369e+06 3.987
16 irregular 2 2 102 72 2 0.389 faster 1 3.193370e+06 3.193372e+06 2.663
16 irregular 2 3 103 49 1 0.417 faster 0 3.193373e+06 3.193375e+06 1.803
16 irregular 2 4 104 48 1.500000e+00 0.168 slower 1 3.193376e+06 3.193378e+06 2.434
16 irregular 2 5 105 48 3 0.472 slower 1 3.193380e+06 3.193383e+06 3.731
16 irregular 2 6 106 49 1 0.330 faster 0 3.193384e+06 3.193386e+06 1.791
16 irregular 2 7 107 48 3 0.489 faster 0 3.193387e+06 3.193391e+06 3.828
16 irregular 2 8 108 47 2.500000e+00 0.368 faster 0 3.193392e+06 3.193396e+06 3.447
16 irregular 2 9 109 74 1 0.182 faster 1 3.193404e+06 3.193405e+06 1.812
16 irregular 2 10 110 74 1.500000e+00 0.237 faster 1 3.193406e+06 3.193409e+06 2.387
16 irregular 2 11 111 73 1 0.515 faster 1 3.193434e+06 3.193435e+06 1.821
16 irregular 2 12 112 73 2 0.131 faster 1 3.193436e+06 3.193439e+06 2.804
16 irregular 2 13 113 48 1 0.425 faster 0 3.193440e+06 3.193442e+06 1.818
16 irregular 2 14 114 47 2 0.103 faster 0 3.193443e+06 3.193446e+06 2.779
16 irregular 2 15 115 46 2 0.103 slower 1 3.193447e+06 3.193449e+06 2.566
16 irregular 2 16 116 74 1.500000e+00 0.476 faster 1 3.193450e+06 3.193453e+06 2.281
16 irregular 2 17 117 73 2.500000e+00 0.510 faster 1 3.193454e+06 3.193457e+06 3.325
16 irregular 2 18 118 47 2 0.491 slower 1 3.193458e+06 3.193461e+06 2.779
16 irregular 2 19 119 48 2 0.338 faster 0 3.193462e+06 3.193465e+06 2.787
16 irregular 2 20 120 73 1 0.525 faster 1 3.193466e+06 3.193468e+06 1.751
16 irregular 2 21 121 73 1 0.241 faster 1 3.193469e+06 3.193470e+06 1.833
16 irregular 2 22 122 48 2 0.373 slower 1 3.193472e+06 3.193475e+06 3.035
16 irregular 2 23 123 72 1 0.365 faster 1 3.193476e+06 3.193478e+06 2.015
16 irregular 2 24 124 71 3 0.281 faster 1 3.193479e+06 3.193483e+06 3.943
16 irregular 2 25 125 71 3 0.560 faster 1 3.193484e+06 3.193488e+06 3.665
16 irregular 2 26 126 50 2.500000e+00 0.386 slower 1 3.193492e+06 3.193495e+06 3.106
16 irregular 2 27 127 70 1 0.196 slower 0 3.193496e+06 3.193498e+06 1.750
16 irregular 2 28 128 49 2 0.288 slower 1 3.193499e+06 3.193502e+06 2.664
16 irregular 2 29 129 70 1 0.538 slower 0 3.193505e+06 3.193507e+06 1.696
16 irregular 2 30 130 49 1.500000e+00 0.124 slower 1 3.193508e+06 3.193510e+06 2.383
16 irregular 2 31 131 49 2.500000e+00 0.375 slower 1 3.193512e+06 3.193515e+06 3.237
16 irregular 2 32 132 70 2.500000e+00 0.330 slower 0 3.193516e+06 3.193520e+06 3.344
16 irregular 2 33 133 71 1.500000e+00 0.288 slower 0 3.193521e+06 3.193523e+06 2.590
16 irregular 2 34 134 72 1.500000e+00 0.188 faster 1 3.193524e+06 3.193527e+06 2.596
16 irregular 2 35 135 72 3 0.580 faster 1 3.193528e+06 3.193532e+06 3.704
16 irregular 2 36 136 49 3 0.332 slower 1 3.193533e+06 3.193537e+06 3.812
16 irregular 2 37 137 49 2.500000e+00 0.310 faster 0 3.193539e+06 3.193542e+06 3.250
16 irregular 2 38 138 72 3 0.431 none 2 3.193543e+06 3.193549e+06 5.999
16 irregular 2 39 139 72 2.500000e+00 0.406 faster 1 3.193550e+06 3.193553e+06 3.256
16 irregular 2 40 140 49 1 0.176 slower 1 3.193554e+06 3.193556e+06 1.807
16 irregular 2 41 141 71 2.500000e+00 0.254 faster 1 3.193559e+06 3.193563e+06 3.325
16 irregular 2 42 142 50 2 0.406 slower 1 3.193564e+06 3.193566e+06 2.648
16 irregular 2 43 143 70 3 0.350 faster 1 3.193567e+06 3.193571e+06 3.842
16 irregular 2 44 144 51 1.500000e+00 0.388 slower 1 3.193573e+06 3.193575e+06 2.441
16 irregular 2 45 145 69 1.500000e+00 0.521 faster 1 3.193577e+06 3.193580e+06 2.855
16 irregular 2 46 146 68 2.500000e+00 0.497 slower 0 3.193581e+06 3.193584e+06 3.225
16 irregular 2 47 147 69 1 0.114 slower 0 3.193585e+06 3.193587e+06 1.718
16 irregular 2 48 148 70 2 0.561 faster 1 3.193589e+06 3.193592e+06 2.883
16 irregular 2 49 149 50 1.500000e+00 0.452 slower 1 3.193593e+06 3.193595e+06 2.220
16 irregular 2 50 150 51 1 0.466 faster 0 3.193596e+06 3.193598e+06 1.779
16 irregular 2 51 151 50 2.500000e+00 0.383 slower 1 3.193599e+06 3.193603e+06 4.096
16 irregular 2 52 152 70 2 0.507 faster 1 3.193605e+06 3.193607e+06 2.681
16 irregular 2 53 153 69 1 0.589 slower 0 3.193610e+06 3.193612e+06 1.801
16 irregular 2 54 154 70 3 0.119 faster 1 3.193613e+06 3.193617e+06 3.728
16 irregular 2 55 155 50 3 0.356 slower 1 3.193618e+06 3.193622e+06 3.629
16 irregular 2 56 156 51 2 0.148 faster 0 3.193623e+06 3.193626e+06 3.679
16 irregular 2 57 157 50 2 0.345 slower 1 3.193627e+06 3.193630e+06 2.898
16 irregular 2 58 158 70 1.500000e+00 0.549 faster 1 3.193635e+06 3.193638e+06 2.675
16 irregular 2 59 159 69 2 0.405 slower 0 3.193641e+06 3.193644e+06 3.187
16 irregular 2 60 160 50 1 0.410 slower 1 3.193645e+06 3.193648e+06 2.596
16 irregular 2 61 161 50 1 0.529 slower 1 3.193649e+06 3.193651e+06 1.731
16 irregular 2 62 162 51 2.500000e+00 0.345 faster 0 3.193652e+06 3.193655e+06 3.166
16 irregular 2 63 163 70 1.500000e+00 0.175 slower 0 3.193656e+06 3.193658e+06 2.280
16 irregular 2 64 164 49 1 0.377 slower 1 3.193662e+06 3.193664e+06 1.823
16 irregular 2 65 165 49 3 0.236 slower 1 3.193668e+06 3.193672e+06 3.901
16 irregular 2 66 166 70 2 0.400 faster 1 3.193674e+06 3.193677e+06 2.796
16 irregular 2 67 167 70 2.500000e+00 0.519 faster 1 3.193681e+06 3.193685e+06 3.654
16 irregular 2 68 168 69 3 0.147 faster 1 3.193688e+06 3.193691e+06 3.730
16 irregular 2 69 169 51 1 0.431 slower 1 3.193693e+06 3.193694e+06 1.685
16 irregular 2 70 170 68 2.500000e+00 0.143 faster 1 3.193695e+06 3.193698e+06 3.193
16 irregular 2 71 171 68 2 0.101 faster 1 3.193702e+06 3.193705e+06 2.725
16 irregular 2 72 172 67 2 0.599 slower 0 3.193708e+06 3.193711e+06 2.980
16 irregular 2 73 173 52 2.500000e+00 0.225 slower 1 3.193721e+06 3.193725e+06 3.473
16 irregular 2 74 174 52 3 0.134 slower 1 3.193725e+06 3.193729e+06 3.720
16 irregular 2 75 175 67 1.500000e+00 0.534 faster 1 3.193737e+06 3.193740e+06 2.608
16 irregular 2 76 176 67 2.500000e+00 0.567 slower 0 3.193741e+06 3.193744e+06 3.273
16 irregular 2 77 177 68 3 0.431 slower 0 3.193746e+06 3.193750e+06 3.806
16 irregular 2 78 178 51 1.500000e+00 0.400 slower 1 3.193752e+06 3.193755e+06 2.215
16 irregular 2 79 179 68 3 0.113 slower 0 3.193755e+06 3.193759e+06 4.060
16 irregular 2 80 180 69 2 0.456 slower 0 3.193761e+06 3.193764e+06 3.202
16 irregular 2 81 181 50 1 0.253 slower 1 3.193767e+06 3.193770e+06 2.518
16 irregular 2 82 182 70 1.500000e+00 0.217 slower 0 3.193777e+06 3.193780e+06 2.756
16 irregular 2 83 183 49 3 0.308 faster 0 3.193784e+06 3.193788e+06 3.972
16 irregular 2 84 184 48 1.500000e+00 0.282 slower 1 3.193791e+06 3.193793e+06 2.393
16 irregular 2 85 185 49 1.500000e+00 0.466 slower 1 3.193796e+06 3.193799e+06 2.586
16 irregular 2 86 186 49 2.500000e+00 0.448 slower 1 3.193800e+06 3.193803e+06 3.279
16 irregular 2 87 187 50 2 0.338 slower 1 3.193814e+06 3.193817e+06 2.876
16 irregular 2 88 188 50 1.500000e+00 0.546 slower 1 3.193820e+06 3.193822e+06 2.282
16 irregular 2 89 189 51 1.500000e+00 0.384 slower 1 3.193823e+06 3.193825e+06 2.333
16 irregular 2 90 190 51 3 0.131 slower 1 3.193833e+06 3.193837e+06 3.909
16 irregular 2 91 191 68 1 0.147 slower 0 3.193842e+06 3.193844e+06 2.426
16 irregular 2 92 192 69 3 0.417 faster 1 3.193846e+06 3.193851e+06 4.650
16 irregular 2 93 193 69 2.500000e+00 0.480 slower 0 3.193860e+06 3.193864e+06 3.539
16 irregular 2 94 194 50 1.500000e+00 0.350 faster 0 3.193866e+06 3.193869e+06 2.400
16 irregular 2 95 195 49 2.500000e+00 0.401 faster 0 3.193870e+06 3.193873e+06 3.079
16 irregular 2 96 196 48 3 0.357 faster 0 3.193874e+06 3.193878e+06 4.095
16 irregular 2 97 197 73 2.500000e+00 0.161 faster 1 3.193881e+06 3.193884e+06 3.287
16 irregular 2 98 198 48 2.500000e+00 0.591 slower 1 3.193886e+06 3.193889e+06 3.225
16 irregular 2 99 199 72 2 0.436 faster 1 3.193893e+06 3.193896e+06 3.365
16 irregular 2 100 200 71 1.500000e+00 0.143 faster 1 3.193897e+06 3.193899e+06 2.708
16 regular 3 1 201 49 2 0.212 faster 0 3.194056e+06 3.194060e+06 3.303
16 regular 3 2 202 48 2 0.262 faster 0 3.194060e+06 3.194064e+06 3.212
16 regular 3 3 203 73 2 0.283 faster 1 3.194065e+06 3.194067e+06 2.926
16 regular 3 4 204 72 2 0.554 faster 1 3.194069e+06 3.194072e+06 2.809
16 regular 3 5 205 48 2 0.313 slower 1 3.194073e+06 3.194076e+06 2.710
16 regular 3 6 206 49 2 0.231 slower 1 3.194077e+06 3.194080e+06 2.694
16 regular 3 7 207 71 2 0.192 slower 0 3.194080e+06 3.194083e+06 2.947
16 regular 3 8 208 72 2 0.524 slower 0 3.194085e+06 3.194087e+06 2.594
16 regular 3 9 209 47 2 0.448 slower 1 3.194088e+06 3.194091e+06 2.776
16 regular 3 10 210 48 2 0.319 slower 1 3.194092e+06 3.194095e+06 2.656
16 regular 3 11 211 72 2 0.186 slower 0 3.194095e+06 3.194098e+06 2.886
16 regular 3 12 212 47 2 0.338 slower 1 3.194100e+06 3.194103e+06 2.714
16 regular 3 13 213 48 2 0.397 faster 0 3.194104e+06 3.194107e+06 2.674
16 regular 3 14 214 47 2 0.411 slower 1 3.194108e+06 3.194111e+06 3.170
16 regular 3 15 215 73 2 0.435 faster 1 3.194113e+06 3.194116e+06 2.837
16 regular 3 16 216 48 2 0.560 faster 0 3.194117e+06 3.194121e+06 3.075
16 regular 3 17 217 47 2 0.275 slower 1 3.194121e+06 3.194124e+06 2.914
16 regular 3 18 218 73 2 0.550 faster 1 3.194126e+06 3.194129e+06 3.037
16 regular 3 19 219 48 2 0.585 slower 1 3.194131e+06 3.194134e+06 2.764
16 regular 3 20 220 48 2 0.220 slower 1 3.194135e+06 3.194138e+06 3.095
16 regular 3 21 221 49 2 0.154 slower 1 3.194139e+06 3.194142e+06 3.023
16 regular 3 22 222 49 2 0.224 slower 1 3.194143e+06 3.194146e+06 2.777
16 regular 3 23 223 50 2 0.210 faster 0 3.194147e+06 3.194149e+06 2.898
16 regular 3 24 224 49 2 0.160 slower 1 3.194150e+06 3.194153e+06 2.866
16 regular 3 25 225 71 2 0.436 faster 1 3.194155e+06 3.194158e+06 2.914
16 regular 3 26 226 50 2 0.399 slower 1 3.194159e+06 3.194162e+06 2.802
16 regular 3 27 227 70 2 0.141 slower 0 3.194162e+06 3.194165e+06 2.893
16 regular 3 28 228 71 2 0.214 slower 0 3.194167e+06 3.194170e+06 2.744
16 regular 3 29 229 48 2 0.202 slower 1 3.194170e+06 3.194173e+06 2.966
16 regular 3 30 230 49 2 0.416 faster 0 3.194174e+06 3.194177e+06 2.906
16 regular 3 31 231 48 2 0.120 slower 1 3.194178e+06 3.194181e+06 2.752
16 regular 3 32 232 72 2 0.140 slower 0 3.194182e+06 3.194185e+06 2.815
16 regular 3 33 233 73 2 0.253 slower 0 3.194187e+06 3.194190e+06 3.037
16 regular 3 34 234 46 2 0.268 slower 1 3.194191e+06 3.194194e+06 2.831
16 regular 3 35 235 73 2 0.192 faster 1 3.194195e+06 3.194197e+06 2.815
16 regular 3 36 236 47 2 0.527 slower 1 3.194199e+06 3.194201e+06 2.764
16 regular 3 37 237 48 2 0.123 slower 1 3.194203e+06 3.194206e+06 3.240
16 regular 3 38 238 72 2 0.394 faster 1 3.194207e+06 3.194210e+06 2.856
16 regular 3 39 239 49 2 0.248 faster 0 3.194211e+06 3.194214e+06 3.005
16 regular 3 40 240 48 2 0.205 slower 1 3.194216e+06 3.194218e+06 2.515
16 regular 3 41 241 72 2 0.334 slower 0 3.194220e+06 3.194223e+06 2.877
16 regular 3 42 242 47 2 0.408 slower 1 3.194224e+06 3.194227e+06 2.763
16 regular 3 43 243 72 2 0.391 faster 1 3.194228e+06 3.194231e+06 2.649
16 regular 3 44 244 72 2 0.211 faster 1 3.194232e+06 3.194234e+06 2.631
16 regular 3 45 245 71 2 0.319 faster 1 3.194235e+06 3.194238e+06 2.840
16 regular 3 46 246 49 2 0.409 slower 1 3.194240e+06 3.194242e+06 2.721
16 regular 3 47 247 70 2 0.210 faster 1 3.194243e+06 3.194246e+06 2.898
16 regular 3 48 248 70 2 0.584 faster 1 3.194248e+06 3.194251e+06 3.011
16 regular 3 49 249 69 2 0.325 slower 0 3.194252e+06 3.194255e+06 3.015
16 regular 3 50 250 70 2 0.236 faster 1 3.194256e+06 3.194259e+06 2.992
16 regular 3 51 251 50 2 0.213 faster 0 3.194260e+06 3.194263e+06 2.990
16 regular 3 52 252 49 2 0.311 faster 0 3.194264e+06 3.194267e+06 2.910
16 regular 3 53 253 48 2 0.122 faster 0 3.194268e+06 3.194271e+06 3.033
16 regular 3 54 254 73 2 0.546 faster 1 3.194272e+06 3.194275e+06 3.062
16 regular 3 55 255 72 2 0.459 slower 0 3.194276e+06 3.194280e+06 3.523
16 regular 3 56 256 73 2 0.541 slower 0 3.194281e+06 3.194284e+06 3.050
16 regular 3 57 257 74 2 0.464 faster 1 3.194286e+06 3.194288e+06 2.824
16 regular 3 58 258 46 2 0.130 slower 1 3.194289e+06 3.194292e+06 2.944
16 regular 3 59 259 73 2 0.346 faster 1 3.194293e+06 3.194296e+06 2.693
16 regular 3 60 260 47 2 0.552 faster 0 3.194297e+06 3.194300e+06 2.758
16 regular 3 61 261 74 2 0.200 faster 1 3.194301e+06 3.194304e+06 3.337
16 regular 3 62 262 73 2 0.153 faster 1 3.194305e+06 3.194308e+06 2.801
16 regular 3 63 263 47 2 0.232 faster 0 3.194308e+06 3.194311e+06 2.998
16 regular 3 64 264 46 2 0.540 faster 0 3.194313e+06 3.194316e+06 3.046
16 regular 3 65 265 75 2 0.413 faster 1 3.194317e+06 3.194320e+06 2.708
16 regular 3 66 266 46 2 0.414 slower 1 3.194321e+06 3.194323e+06 2.551
16 regular 3 67 267 74 2 0.567 slower 0 3.194325e+06 3.194327e+06 2.528
16 regular 3 68 268 45 2 0.322 slower 1 3.194329e+06 3.194331e+06 2.441
16 regular 3 69 269 46 2 0.167 slower 1 3.194332e+06 3.194335e+06 2.605
16 regular 3 70 270 74 2 0.200 slower 0 3.194335e+06 3.194338e+06 2.758
16 regular 3 71 271 45 2 0.566 slower 1 3.194339e+06 3.194342e+06 2.759
16 regular 3 72 272 74 2 0.356 slower 0 3.194344e+06 3.194346e+06 2.389
16 regular 3 73 273 45 2 0.560 slower 1 3.194348e+06 3.194350e+06 2.594
16 regular 3 74 274 45 2 0.599 slower 1 3.194352e+06 3.194354e+06 2.607
16 regular 3 75 275 46 2 0.536 slower 1 3.194356e+06 3.194358e+06 2.629
16 regular 3 76 276 74 2 0.331 faster 1 3.194360e+06 3.194363e+06 2.798
16 regular 3 77 277 73 2 0.592 slower 0 3.194364e+06 3.194367e+06 2.852
16 regular 3 78 278 74 2 0.304 slower 0 3.194369e+06 3.194372e+06 3.276
16 regular 3 79 279 45 2 0.317 slower 1 3.194375e+06 3.194377e+06 2.867
16 regular 3 80 280 75 2 0.265 faster 1 3.194379e+06 3.194382e+06 3.283
16 regular 3 81 281 74 2 0.420 faster 1 3.194383e+06 3.194386e+06 2.777
16 regular 3 82 282 46 2 0.271 slower 1 3.194387e+06 3.194390e+06 2.786
16 regular 3 83 283 73 2 0.259 faster 1 3.194392e+06 3.194394e+06 2.742
16 regular 3 84 284 73 2 0.383 faster 1 3.194396e+06 3.194398e+06 2.621
16 regular 3 85 285 72 2 0.109 faster 1 3.194400e+06 3.194403e+06 2.702
16 regular 3 86 286 72 2 0.301 faster 1 3.194404e+06 3.194407e+06 2.795
16 regular 3 87 287 49 2 0.194 slower 1 3.194408e+06 3.194411e+06 2.897
16 regular 3 88 288 71 2 0.309 slower 0 3.194412e+06 3.194416e+06 3.623
16 regular 3 89 289 72 2 0.547 slower 0 3.194417e+06 3.194420e+06 2.740
16 regular 3 90 290 73 2 0.295 slower 0 3.194422e+06 3.194425e+06 2.979
16 regular 3 91 291 46 2 0.443 none 2 3.194426e+06 3.194431e+06 4.999
16 regular 3 92 292 46 2 0.402 slower 1 3.194432e+06 3.194435e+06 2.893
16 regular 3 93 293 73 2 0.463 faster 1 3.194436e+06 3.194439e+06 2.882
16 regular 3 94 294 47 2 0.411 faster 0 3.194440e+06 3.194443e+06 2.630
16 regular 3 95 295 46 2 0.175 slower 1 3.194444e+06 3.194446e+06 2.672
16 regular 3 96 296 47 2 0.144 slower 1 3.194447e+06 3.194450e+06 2.806
16 regular 3 97 297 73 2 0.288 faster 1 3.194451e+06 3.194454e+06 2.945
16 regular 3 98 298 72 2 0.163 faster 1 3.194456e+06 3.194458e+06 2.815
16 regular 3 99 299 72 2 0.173 faster 1 3.194460e+06 3.194463e+06 2.779
16 regular 3 100 300 71 2 0.463 faster 1 3.194465e+06 3.194468e+06 2.792
16 irregular 4 1 301 49 1 0.382 faster 0 3.194572e+06 3.194574e+06 1.978
16 irregular 4 2 302 72 1.500000e+00 0.120 faster 1 3.194574e+06 3.194577e+06 2.194
16 irregular 4 3 303 71 3 0.599 faster 1 3.194578e+06 3.194582e+06 3.897
16 irregular 4 4 304 71 1.500000e+00 0.454 slower 0 3.194583e+06 3.194585e+06 2.173
16 irregular 4 5 305 48 1 0.534 slower 1 3.194586e+06 3.194588e+06 1.704
16 irregular 4 6 306 49 3 0.423 slower 1 3.194589e+06 3.194593e+06 3.617
16 irregular 4 7 307 71 1.500000e+00 0.223 faster 1 3.194594e+06 3.194596e+06 2.367
16 irregular 4 8 308 50 2.500000e+00 0.594 slower 1 3.194597e+06 3.194601e+06 3.293
16 irregular 4 9 309 70 2.500000e+00 0.299 faster 1 3.194601e+06 3.194605e+06 3.335
16 irregular 4 10 310 69 1 0.351 faster 1 3.194606e+06 3.194608e+06 1.795
16 irregular 4 11 311 69 3 0.429 slower 0 3.194609e+06 3.194613e+06 3.813
16 irregular 4 12 312 70 3 0.465 faster 1 3.194614e+06 3.194617e+06 3.698
16 irregular 4 13 313 69 2 0.213 faster 1 3.194619e+06 3.194621e+06 2.699
16 irregular 4 14 314 51 2 0.484 slower 1 3.194624e+06 3.194627e+06 2.865
16 irregular 4 15 315 52 3 0.221 faster 0 3.194630e+06 3.194635e+06 4.851
16 irregular 4 16 316 51 3 0.257 faster 0 3.194637e+06 3.194641e+06 4.168
16 irregular 4 17 317 70 2.500000e+00 0.139 faster 1 3.194645e+06 3.194648e+06 3.548
16 irregular 4 18 318 70 3 0.382 faster 1 3.194649e+06 3.194654e+06 4.398
16 irregular 4 19 319 69 2.500000e+00 0.223 faster 1 3.194654e+06 3.194658e+06 3.417
16 irregular 4 20 320 51 2 0.342 faster 0 3.194659e+06 3.194663e+06 3.497
16 irregular 4 21 321 70 2.500000e+00 0.328 faster 1 3.194664e+06 3.194667e+06 3.471
16 irregular 4 22 322 69 2 0.205 faster 1 3.194668e+06 3.194671e+06 3.114
16 irregular 4 23 323 51 1.500000e+00 0.157 slower 1 3.194672e+06 3.194675e+06 2.256
16 irregular 4 24 324 68 1 0.113 slower 0 3.194675e+06 3.194677e+06 1.976
16 irregular 4 25 325 51 1.500000e+00 0.273 slower 1 3.194678e+06 3.194681e+06 2.388
16 irregular 4 26 326 69 3 0.136 faster 1 3.194682e+06 3.194686e+06 4.039
16 irregular 4 27 327 52 1 0.335 slower 1 3.194687e+06 3.194689e+06 2.093
16 irregular 4 28 328 52 2 0.289 slower 1 3.194692e+06 3.194694e+06 2.668
16 irregular 4 29 329 67 2 0.424 slower 0 3.194695e+06 3.194698e+06 2.960
16 irregular 4 30 330 52 2.500000e+00 0.245 slower 1 3.194701e+06 3.194704e+06 3.272
16 irregular 4 31 331 68 2 0.506 slower 0 3.194708e+06 3.194712e+06 3.358
16 irregular 4 32 332 51 2.500000e+00 0.573 faster 0 3.194714e+06 3.194717e+06 3.345
16 irregular 4 33 333 70 2.500000e+00 0.194 faster 1 3.194719e+06 3.194722e+06 3.462
16 irregular 4 34 334 69 2.500000e+00 0.560 slower 0 3.194724e+06 3.194727e+06 3.236
16 irregular 4 35 335 50 1 0.327 slower 1 3.194729e+06 3.194731e+06 1.707
16 irregular 4 36 336 50 3 0.158 slower 1 3.194732e+06 3.194736e+06 3.817
16 irregular 4 37 337 51 1.500000e+00 0.521 slower 1 3.194738e+06 3.194741e+06 2.306
16 irregular 4 38 338 51 1 0.549 slower 1 3.194742e+06 3.194744e+06 1.781
16 irregular 4 39 339 52 3 0.268 slower 1 3.194745e+06 3.194750e+06 4.833
16 irregular 4 40 340 68 3 0.296 faster 1 3.194751e+06 3.194755e+06 3.643
16 irregular 4 41 341 53 3 0.389 slower 1 3.194757e+06 3.194761e+06 3.875
16 irregular 4 42 342 53 3 0.527 slower 1 3.194763e+06 3.194767e+06 3.761
16 irregular 4 43 343 66 3 0.187 faster 1 3.194769e+06 3.194772e+06 3.798
16 irregular 4 44 344 66 3 0.305 faster 1 3.194774e+06 3.194778e+06 4.102
16 irregular 4 45 345 55 2.500000e+00 0.469 faster 0 3.194780e+06 3.194783e+06 3.314
16 irregular 4 46 346 54 1.500000e+00 0.422 faster 0 3.194785e+06 3.194787e+06 2.420
16 irregular 4 47 347 53 2 0.231 slower 1 3.194788e+06 3.194791e+06 2.952
16 irregular 4 48 348 67 1 0.464 slower 0 3.194792e+06 3.194794e+06 1.973
16 irregular 4 49 349 52 1.500000e+00 0.532 faster 0 3.194795e+06 3.194798e+06 2.485
16 irregular 4 50 350 51 2.500000e+00 0.237 faster 0 3.194799e+06 3.194803e+06 3.312
16 irregular 4 51 351 50 2 0.207 slower 1 3.194806e+06 3.194809e+06 3.038
16 irregular 4 52 352 69 2 0.498 faster 1 3.194810e+06 3.194813e+06 3.050
16 irregular 4 53 353 69 2 0.526 faster 1 3.194814e+06 3.194817e+06 2.915
16 irregular 4 54 354 52 1.500000e+00 0.582 faster 0 3.194819e+06 3.194821e+06 2.526
16 irregular 4 55 355 51 1 0.291 slower 1 3.194822e+06 3.194824e+06 1.862
16 irregular 4 56 356 69 1.500000e+00 0.280 slower 0 3.194825e+06 3.194827e+06 2.159
16 irregular 4 57 357 50 2 0.153 slower 1 3.194828e+06 3.194831e+06 2.609
16 irregular 4 58 358 69 3 0.577 slower 0 3.194836e+06 3.194840e+06 4.377
16 irregular 4 59 359 70 2 0.425 slower 0 3.194842e+06 3.194845e+06 3.072
16 irregular 4 60 360 71 1.500000e+00 0.236 slower 0 3.194846e+06 3.194849e+06 2.423
16 irregular 4 61 361 72 2.500000e+00 0.142 faster 1 3.194849e+06 3.194853e+06 3.283
16 irregular 4 62 362 48 3 0.552 slower 1 3.194854e+06 3.194858e+06 3.687
16 irregular 4 63 363 71 1 0.497 faster 1 3.194859e+06 3.194861e+06 1.876
16 irregular 4 64 364 49 1.500000e+00 0.595 slower 1 3.194863e+06 3.194866e+06 2.439
16 irregular 4 65 365 50 3 0.127 slower 1 3.194867e+06 3.194871e+06 3.759
16 irregular 4 66 366 70 1 0.496 faster 1 3.194872e+06 3.194874e+06 1.781
16 irregular 4 67 367 69 2 0.386 faster 1 3.194878e+06 3.194881e+06 3.052
16 irregular 4 68 368 69 1.500000e+00 0.401 slower 0 3.194882e+06 3.194885e+06 2.292
16 irregular 4 69 369 50 2 0.446 faster 0 3.194886e+06 3.194889e+06 3.248
16 irregular 4 70 370 49 2.500000e+00 0.302 slower 1 3.194891e+06 3.194894e+06 3.314
16 irregular 4 71 371 70 3 0.150 slower 0 3.194896e+06 3.194900e+06 3.974
16 irregular 4 72 372 49 3 0.464 slower 1 3.194902e+06 3.194906e+06 3.754
16 irregular 4 73 373 71 2 0.292 faster 1 3.194908e+06 3.194910e+06 2.728
16 irregular 4 74 374 70 1 0.222 slower 0 3.194915e+06 3.194917e+06 1.701
16 irregular 4 75 375 49 2.500000e+00 0.519 slower 1 3.194919e+06 3.194922e+06 3.169
16 irregular 4 76 376 71 2.500000e+00 0.451 slower 0 3.194923e+06 3.194926e+06 3.270
16 irregular 4 77 377 48 2 0.438 slower 1 3.194930e+06 3.194933e+06 2.724
16 irregular 4 78 378 71 2.500000e+00 0.103 slower 0 3.194934e+06 3.194937e+06 3.371
16 irregular 4 79 379 48 1.500000e+00 0.462 slower 1 3.194942e+06 3.194944e+06 2.832
16 irregular 4 80 380 48 2.500000e+00 0.224 slower 1 3.194947e+06 3.194950e+06 3.415
16 irregular 4 81 381 71 1 0.165 slower 0 3.194952e+06 3.194954e+06 1.884
16 irregular 4 82 382 72 1.500000e+00 0.532 faster 1 3.194965e+06 3.194968e+06 2.516
16 irregular 4 83 383 72 1.500000e+00 0.460 faster 1 3.194970e+06 3.194972e+06 2.226
16 irregular 4 84 384 49 2.500000e+00 0.459 slower 1 3.194974e+06 3.194977e+06 3.204
16 irregular 4 85 385 71 1 0.534 faster 1 3.194980e+06 3.194982e+06 2.045
16 irregular 4 86 386 50 2 0.224 slower 1 3.194985e+06 3.194988e+06 2.952
16 irregular 4 87 387 50 2 0.333 slower 1 3.194989e+06 3.194993e+06 3.139
16 irregular 4 88 388 69 2.500000e+00 0.485 slower 0 3.194996e+06 3.194999e+06 3.856
16 irregular 4 89 389 70 1.500000e+00 0.336 slower 0 3.195002e+06 3.195005e+06 2.290
16 irregular 4 90 390 49 1 0.200 slower 1 3.195006e+06 3.195008e+06 1.778
16 irregular 4 91 391 71 1.500000e+00 0.147 slower 0 3.195010e+06 3.195012e+06 2.413
16 irregular 4 92 392 48 2.500000e+00 0.586 slower 1 3.195015e+06 3.195019e+06 3.502
16 irregular 4 93 393 49 1.500000e+00 0.198 slower 1 3.195022e+06 3.195025e+06 2.414
16 irregular 4 94 394 49 1.500000e+00 0.357 slower 1 3.195026e+06 3.195028e+06 2.320
16 irregular 4 95 395 50 1 0.331 slower 1 3.195029e+06 3.195031e+06 1.924
16 irregular 4 96 396 70 2 0.366 faster 1 3.195041e+06 3.195044e+06 2.975
16 irregular 4 97 397 69 1 0.595 faster 1 3.195046e+06 3.195047e+06 1.766
16 irregular 4 98 398 69 1 0.523 faster 1 3.195049e+06 3.195051e+06 1.737
16 irregular 4 99 399 52 1 0.234 faster 0 3.195052e+06 3.195054e+06 1.780
16 irregular 4 100 400 51 1 0.444 faster 0 3.195056e+06 3.195057e+06 1.698
16 regular 5 1 401 71 1 0.504 faster 1 3.287826e+06 3.287828e+06 1.583
16 regular 5 2 402 49 1 0.275 faster 0 3.287829e+06 3.287831e+06 1.793
16 regular 5 3 403 47 1 0.323 slower 1 3.287833e+06 3.287834e+06 1.610
16 regular 5 4 404 49 1 0.271 slower 1 3.287836e+06 3.287838e+06 1.603
16 regular 5 5 405 49 1 0.426 slower 1 3.287839e+06 3.287841e+06 1.709
16 regular 5 6 406 51 1 0.522 slower 1 3.287842e+06 3.287844e+06 1.740
16 regular 5 7 407 69 1 0.377 faster 1 3.287846e+06 3.287848e+06 1.866
16 regular 5 8 408 67 1 0.274 faster 1 3.287849e+06 3.287851e+06 1.876
16 regular 5 9 409 53 1 0.251 slower 1 3.287852e+06 3.287854e+06 1.761
16 regular 5 10 410 65 1 0.400 slower 0 3.287856e+06 3.287858e+06 2.185
16 regular 5 11 411 53 1 0.339 slower 1 3.287859e+06 3.287861e+06 1.739
16 regular 5 12 412 67 1 0.511 slower 0 3.287862e+06 3.287864e+06 1.732
16 regular 5 13 413 51 1 0.581 slower 1 3.287865e+06 3.287867e+06 1.662
16 regular 5 14 414 53 1 0.524 slower 1 3.287868e+06 3.287870e+06 1.675
16 regular 5 15 415 53 1 0.168 slower 1 3.287871e+06 3.287873e+06 1.865
16 regular 5 16 416 54 1 0.146 slower 1 3.287874e+06 3.287876e+06 1.780
16 regular 5 17 417 66 1 0.434 slower 0 3.287877e+06 3.287878e+06 1.660
16 regular 5 18 418 67 1 0.267 slower 0 3.287880e+06 3.287882e+06 2.277
16 regular 5 19 419 68 1 0.217 slower 0 3.287883e+06 3.287885e+06 1.653
16 regular 5 20 420 51 1 0.198 slower 1 3.287886e+06 3.287888e+06 1.653
16 regular 5 21 421 52 1 0.575 slower 1 3.287889e+06 3.287891e+06 1.781
16 regular 5 22 422 68 1 0.207 slower 0 3.287892e+06 3.287893e+06 1.662
16 regular 5 23 423 69 1 0.106 slower 0 3.287894e+06 3.287896e+06 1.671
16 regular 5 24 424 50 1 0.146 slower 1 3.287896e+06 3.287898e+06 1.639
16 regular 5 25 425 69 1 0.584 slower 0 3.287899e+06 3.287901e+06 1.793
16 regular 5 26 426 70 1 0.316 slower 0 3.287902e+06 3.287904e+06 2.024
16 regular 5 27 427 49 1 0.391 slower 1 3.287905e+06 3.287907e+06 1.782
16 regular 5 28 428 71 1 0.119 slower 0 3.287908e+06 3.287910e+06 1.925
16 regular 5 29 429 72 1 0.596 slower 0 3.287911e+06 3.287913e+06 1.757
16 regular 5 30 430 47 1 0.441 slower 1 3.287914e+06 3.287915e+06 1.578
16 regular 5 31 431 72 1 0.161 faster 1 3.287916e+06 3.287918e+06 1.889
16 regular 5 32 432 48 1 0.515 faster 0 3.287919e+06 3.287921e+06 2.097
16 regular 5 33 433 47 1 0.300 slower 1 3.287922e+06 3.287924e+06 1.674
16 regular 5 34 434 72 1 0.595 faster 1 3.287925e+06 3.287927e+06 1.995
16 regular 5 35 435 48 1 0.566 slower 1 3.287929e+06 3.287930e+06 1.707
16 regular 5 36 436 49 1 0.344 slower 1 3.287932e+06 3.287934e+06 2.227
16 regular 5 37 437 71 1 0.585 faster 1 3.287936e+06 3.287938e+06 1.757
16 regular 5 38 438 50 1 0.267 slower 1 3.287939e+06 3.287940e+06 1.618
16 regular 5 39 439 70 1 0.241 faster 1 3.287941e+06 3.287943e+06 1.799
16 regular 5 40 440 69 1 0.505 faster 1 3.287944e+06 3.287946e+06 2.023
16 regular 5 41 441 69 1 0.219 faster 1 3.287947e+06 3.287949e+06 1.943
16 regular 5 42 442 52 1 0.297 faster 0 3.287950e+06 3.287952e+06 1.828
16 regular 5 43 443 69 1 0.139 faster 1 3.287953e+06 3.287955e+06 1.762
16 regular 5 44 444 69 1 0.186 slower 0 3.287956e+06 3.287958e+06 1.783
16 regular 5 45 445 70 1 0.118 faster 1 3.287959e+06 3.287961e+06 1.812
16 regular 5 46 446 69 1 0.326 faster 1 3.287962e+06 3.287964e+06 1.998
16 regular 5 47 447 69 1 0.336 slower 0 3.287965e+06 3.287967e+06 2.358
16 regular 5 48 448 50 1 0.124 slower 1 3.287968e+06 3.287970e+06 2.403
16 regular 5 49 449 51 1 0.161 slower 1 3.287971e+06 3.287974e+06 2.380
16 regular 5 50 450 69 1 0.287 slower 0 3.287975e+06 3.287977e+06 2.480
16 regular 5 51 451 50 1 0.584 slower 1 3.287978e+06 3.287980e+06 1.797
16 regular 5 52 452 51 1 0.401 slower 1 3.287981e+06 3.287983e+06 2.194
16 regular 5 53 453 51 1 0.484 slower 1 3.287984e+06 3.287987e+06 2.144
16 regular 5 54 454 68 1 0.161 slower 0 3.287987e+06 3.287990e+06 2.256
16 regular 5 55 455 69 1 0.131 slower 0 3.287990e+06 3.287992e+06 2.053
16 regular 5 56 456 50 1 0.580 slower 1 3.287994e+06 3.287996e+06 2.069
16 regular 5 57 457 50 1 0.381 slower 1 3.287997e+06 3.287999e+06 1.842
16 regular 5 58 458 69 1 0.311 faster 1 3.287999e+06 3.288001e+06 1.848
16 regular 5 59 459 51 1 0.146 faster 0 3.288002e+06 3.288004e+06 1.788
16 regular 5 60 460 70 1 0.525 slower 0 3.288005e+06 3.288007e+06 2.084
16 regular 5 61 461 71 1 0.239 faster 1 3.288008e+06 3.288010e+06 1.900
16 regular 5 62 462 70 1 0.576 faster 1 3.288011e+06 3.288013e+06 2.146
16 regular 5 63 463 50 1 0.117 faster 0 3.288014e+06 3.288016e+06 1.939
16 regular 5 64 464 49 1 0.533 faster 0 3.288019e+06 3.288020e+06 1.855
16 regular 5 65 465 48 1 0.517 faster 0 3.288022e+06 3.288024e+06 1.872
16 regular 5 66 466 47 1 0.263 slower 1 3.288025e+06 3.288028e+06 2.689
16 regular 5 67 467 72 1 0.209 faster 1 3.288029e+06 3.288031e+06 1.860
16 regular 5 68 468 72 1 0.526 faster 1 3.288032e+06 3.288034e+06 1.714
16 regular 5 69 469 49 1 0.318 faster 0 3.288035e+06 3.288036e+06 1.728
16 regular 5 70 470 48 1 0.217 slower 1 3.288038e+06 3.288040e+06 1.735
16 regular 5 71 471 72 1 0.389 faster 1 3.288041e+06 3.288043e+06 1.972
16 regular 5 72 472 49 1 0.292 slower 1 3.288043e+06 3.288045e+06 1.883
16 regular 5 73 473 49 1 0.600 faster 0 3.288047e+06 3.288048e+06 1.643
16 regular 5 74 474 72 1 0.227 faster 1 3.288049e+06 3.288051e+06 1.918
16 regular 5 75 475 71 1 0.439 faster 1 3.288052e+06 3.288054e+06 1.692
16 regular 5 76 476 71 1 0.358 slower 0 3.288055e+06 3.288057e+06 1.903
16 regular 5 77 477 72 1 0.573 faster 1 3.288058e+06 3.288060e+06 1.701
16 regular 5 78 478 49 1 0.202 slower 1 3.288060e+06 3.288062e+06 1.963
16 regular 5 79 479 49 1 0.450 faster 0 3.288064e+06 3.288065e+06 1.749
16 regular 5 80 480 72 1 0.326 faster 1 3.288067e+06 3.288069e+06 1.972
16 regular 5 81 481 49 1 0.368 faster 0 3.288070e+06 3.288072e+06 1.686
16 regular 5 82 482 48 1 0.258 faster 0 3.288073e+06 3.288075e+06 1.775
16 regular 5 83 483 73 1 0.204 faster 1 3.288076e+06 3.288078e+06 1.769
16 regular 5 84 484 73 1 0.209 faster 1 3.288079e+06 3.288081e+06 2.021
16 regular 5 85 485 72 1 0.471 faster 1 3.288082e+06 3.288084e+06 2.039
16 regular 5 86 486 72 1 0.150 faster 1 3.288085e+06 3.288087e+06 2.108
16 regular 5 87 487 49 1 0.262 slower 1 3.288088e+06 3.288090e+06 1.927
16 regular 5 88 488 49 1 0.321 slower 1 3.288091e+06 3.288092e+06 1.824
16 regular 5 89 489 70 1 0.271 faster 1 3.288093e+06 3.288095e+06 1.830
16 regular 5 90 490 50 1 0.442 slower 1 3.288096e+06 3.288098e+06 2.014
16 regular 5 91 491 69 1 0.413 faster 1 3.288099e+06 3.288101e+06 1.761
16 regular 5 92 492 51 1 0.474 faster 0 3.288102e+06 3.288104e+06 2.068
16 regular 5 93 493 50 1 0.553 slower 1 3.288106e+06 3.288107e+06 1.830
16 regular 5 94 494 69 1 0.586 faster 1 3.288109e+06 3.288111e+06 2.198
16 regular 5 95 495 51 1 0.373 faster 0 3.288112e+06 3.288114e+06 1.786
16 regular 5 96 496 50 1 0.384 faster 0 3.288115e+06 3.288117e+06 1.789
16 regular 5 97 497 71 1 0.139 faster 1 3.288118e+06 3.288119e+06 1.763
16 regular 5 98 498 50 1 0.373 faster 0 3.288120e+06 3.288122e+06 1.828
16 regular 5 99 499 71 1 0.568 faster 1 3.288123e+06 3.288125e+06 1.760
16 regular 5 100 500 71 1 0.338 faster 1 3.288126e+06 3.288128e+06 2.097
16 irregular 6 1 501 50 3 0.245 faster 0 3.288146e+06 3.288150e+06 3.922
16 irregular 6 2 502 49 2.500000e+00 0.143 faster 0 3.288151e+06 3.288154e+06 3.458
16 irregular 6 3 503 72 3 0.477 faster 1 3.288156e+06 3.288160e+06 3.902
16 irregular 6 4 504 72 3 0.268 faster 1 3.288161e+06 3.288164e+06 3.742
16 irregular 6 5 505 71 2 0.436 faster 1 3.288165e+06 3.288168e+06 2.763
16 irregular 6 6 506 71 2 0.272 faster 1 3.288169e+06 3.288172e+06 2.680
16 irregular 6 7 507 70 2 0.172 faster 1 3.288173e+06 3.288175e+06 2.638
16 irregular 6 8 508 70 2 0.251 faster 1 3.288177e+06 3.288179e+06 2.638
16 irregular 6 9 509 51 2 0.108 faster 0 3.288181e+06 3.288184e+06 2.785
16 irregular 6 10 510 70 2.500000e+00 0.335 faster 1 3.288185e+06 3.288188e+06 3.203
16 irregular 6 11 511 50 3 0.296 slower 1 3.288189e+06 3.288193e+06 4.144
16 irregular 6 12 512 69 1.500000e+00 0.402 slower 0 3.288194e+06 3.288197e+06 2.619
16 irregular 6 13 513 70 2.500000e+00 0.363 faster 1 3.288199e+06 3.288202e+06 3.323
16 irregular 6 14 514 50 1.500000e+00 0.302 slower 1 3.288204e+06 3.288206e+06 2.237
16 irregular 6 15 515 51 2 0.119 faster 0 3.288207e+06 3.288209e+06 2.823
16 irregular 6 16 516 70 1.500000e+00 0.156 slower 0 3.288211e+06 3.288213e+06 2.355
16 irregular 6 17 517 49 2 0.292 faster 0 3.288215e+06 3.288218e+06 3.334
16 irregular 6 18 518 72 3 0.274 faster 1 3.288219e+06 3.288223e+06 3.853
16 irregular 6 19 519 72 3 0.496 faster 1 3.288225e+06 3.288228e+06 3.832
16 irregular 6 20 520 49 1 0.321 slower 1 3.288230e+06 3.288232e+06 1.956
16 irregular 6 21 521 71 2.500000e+00 0.246 faster 1 3.288233e+06 3.288236e+06 3.354
16 irregular 6 22 522 70 2.500000e+00 0.512 faster 1 3.288237e+06 3.288241e+06 3.444
16 irregular 6 23 523 70 1 0.448 faster 1 3.288243e+06 3.288245e+06 2.086
16 irregular 6 24 524 69 3 0.126 faster 1 3.288245e+06 3.288249e+06 3.855
16 irregular 6 25 525 51 1.500000e+00 0.533 faster 0 3.288251e+06 3.288254e+06 2.461
16 irregular 6 26 526 70 1.500000e+00 0.466 faster 1 3.288255e+06 3.288258e+06 2.674
16 irregular 6 27 527 51 2.500000e+00 0.480 slower 1 3.288260e+06 3.288265e+06 4.903
16 irregular 6 28 528 51 2.500000e+00 0.369 slower 1 3.288266e+06 3.288269e+06 3.490
16 irregular 6 29 529 68 1.500000e+00 0.426 slower 0 3.288270e+06 3.288273e+06 2.567
16 irregular 6 30 530 69 3 0.496 faster 1 3.288275e+06 3.288279e+06 4.440
16 irregular 6 31 531 51 1.500000e+00 0.562 slower 1 3.288280e+06 3.288284e+06 3.088
16 irregular 6 32 532 52 1 0.553 faster 0 3.288285e+06 3.288287e+06 1.797
16 irregular 6 33 533 51 3 0.514 slower 1 3.288288e+06 3.288292e+06 4.427
16 irregular 6 34 534 69 1 0.589 slower 0 3.288294e+06 3.288296e+06 1.932
16 irregular 6 35 535 50 1.500000e+00 0.447 slower 1 3.288297e+06 3.288299e+06 2.313
16 irregular 6 36 536 69 1.500000e+00 0.582 faster 1 3.288301e+06 3.288303e+06 2.382
16 irregular 6 37 537 51 1.500000e+00 0.459 slower 1 3.288305e+06 3.288307e+06 2.282
16 irregular 6 38 538 52 2.500000e+00 0.501 slower 1 3.288309e+06 3.288312e+06 3.305
16 irregular 6 39 539 52 3 0.416 slower 1 3.288314e+06 3.288318e+06 3.773
16 irregular 6 40 540 53 3 0.273 faster 0 3.288318e+06 3.288323e+06 4.410
16 irregular 6 41 541 68 2.500000e+00 0.346 slower 0 3.288324e+06 3.288327e+06 3.603
16 irregular 6 42 542 69 3 0.180 slower 0 3.288329e+06 3.288333e+06 3.868
16 irregular 6 43 543 50 2.500000e+00 0.329 slower 1 3.288334e+06 3.288338e+06 3.270
16 irregular 6 44 544 70 1.500000e+00 0.187 slower 0 3.288339e+06 3.288342e+06 3.399
16 irregular 6 45 545 49 2 0.287 slower 1 3.288343e+06 3.288346e+06 3.017
16 irregular 6 46 546 50 2 0.293 slower 1 3.288347e+06 3.288350e+06 2.947
16 irregular 6 47 547 70 1 0.406 slower 0 3.288351e+06 3.288353e+06 1.959
16 irregular 6 48 548 49 1 0.102 slower 1 3.288354e+06 3.288356e+06 2.022
16 irregular 6 49 549 50 2 0.382 slower 1 3.288357e+06 3.288360e+06 2.946
16 irregular 6 50 550 70 1.500000e+00 0.276 faster 1 3.288362e+06 3.288364e+06 2.293
16 irregular 6 51 551 51 2 0.446 slower 1 3.288366e+06 3.288369e+06 2.711
16 irregular 6 52 552 51 1 0.235 slower 1 3.288370e+06 3.288372e+06 1.825
16 irregular 6 53 553 52 3 0.238 slower 1 3.288373e+06 3.288377e+06 3.970
16 irregular 6 54 554 68 2.500000e+00 0.383 slower 0 3.288379e+06 3.288383e+06 3.941
16 irregular 6 55 555 69 2.500000e+00 0.521 faster 1 3.288384e+06 3.288388e+06 3.302
16 irregular 6 56 556 52 1 0.487 slower 1 3.288390e+06 3.288392e+06 2.299
16 irregular 6 57 557 68 2 0.364 faster 1 3.288393e+06 3.288397e+06 3.681
16 irregular 6 58 558 53 1 0.498 slower 1 3.288398e+06 3.288401e+06 2.880
16 irregular 6 59 559 53 2.500000e+00 0.521 slower 1 3.288403e+06 3.288406e+06 3.726
16 irregular 6 60 560 66 1 0.598 slower 0 3.288408e+06 3.288411e+06 2.625
16 irregular 6 61 561 67 1.500000e+00 0.368 slower 0 3.288412e+06 3.288414e+06 2.342
16 irregular 6 62 562 68 1.500000e+00 0.418 slower 0 3.288416e+06 3.288418e+06 2.102
16 irregular 6 63 563 69 1 0.541 slower 0 3.288420e+06 3.288422e+06 2.168
16 irregular 6 64 564 50 3 0.118 slower 1 3.288423e+06 3.288427e+06 4.187
16 irregular 6 65 565 50 2.500000e+00 0.438 slower 1 3.288429e+06 3.288432e+06 3.604
16 irregular 6 66 566 51 1.500000e+00 0.129 slower 1 3.288433e+06 3.288436e+06 2.342
16 irregular 6 67 567 51 1.500000e+00 0.143 slower 1 3.288437e+06 3.288439e+06 2.192
16 irregular 6 68 568 52 3 0.177 slower 1 3.288440e+06 3.288445e+06 4.587
16 irregular 6 69 569 52 1.500000e+00 0.495 slower 1 3.288446e+06 3.288448e+06 2.262
16 irregular 6 70 570 53 3 0.575 faster 0 3.288450e+06 3.288454e+06 3.821
16 irregular 6 71 571 68 2 0.349 faster 1 3.288455e+06 3.288458e+06 2.748
16 irregular 6 72 572 52 1.500000e+00 0.230 faster 0 3.288459e+06 3.288462e+06 2.287
16 irregular 6 73 573 69 2.500000e+00 0.596 faster 1 3.288463e+06 3.288467e+06 3.182
16 irregular 6 74 574 68 1 0.102 faster 1 3.288468e+06 3.288470e+06 1.893
16 irregular 6 75 575 52 2.500000e+00 0.340 slower 1 3.288472e+06 3.288475e+06 3.408
16 irregular 6 76 576 53 2.500000e+00 0.436 faster 0 3.288477e+06 3.288480e+06 3.355
16 irregular 6 77 577 52 2.500000e+00 0.296 faster 0 3.288481e+06 3.288485e+06 3.221
16 irregular 6 78 578 69 1 0.210 faster 1 3.288486e+06 3.288488e+06 1.949
16 irregular 6 79 579 69 3 0.418 faster 1 3.288490e+06 3.288488e+06 -2.399
16 irregular 6 80 580 68 2 0.430 faster 1 3.288495e+06 3.288498e+06 3.596
16 irregular 6 81 581 52 1 0.408 faster 0 3.288499e+06 3.288501e+06 1.912
16 irregular 6 82 582 69 3 0.132 faster 1 3.288503e+06 3.288507e+06 4.243
16 irregular 6 83 583 52 1.500000e+00 0.496 faster 0 3.288510e+06 3.288513e+06 2.339
16 irregular 6 84 584 51 2 0.389 slower 1 3.288514e+06 3.288518e+06 3.543
16 irregular 6 85 585 69 1 0.168 faster 1 3.288520e+06 3.288521e+06 1.856
16 irregular 6 86 586 68 2.500000e+00 0.597 faster 1 3.288523e+06 3.288526e+06 3.348
16 irregular 6 87 587 68 2 0.190 faster 1 3.288528e+06 3.288531e+06 3.175
16 irregular 6 88 588 67 2 0.524 faster 1 3.288532e+06 3.288535e+06 2.878
16 irregular 6 89 589 53 1 0.485 faster 0 3.288537e+06 3.288540e+06 2.316
16 irregular 6 90 590 68 3 0.248 faster 1 3.288541e+06 3.288544e+06 3.870
16 irregular 6 91 591 67 1 0.220 faster 1 3.288545e+06 3.288547e+06 1.869
16 irregular 6 92 592 53 1 0.113 faster 0 3.288549e+06 3.288551e+06 1.987
16 irregular 6 93 593 52 2 0.123 faster 0 3.288551e+06 3.288554e+06 2.771
16 irregular 6 94 594 69 1 0.501 faster 1 3.288556e+06 3.288558e+06 1.603
16 irregular 6 95 595 52 3 0.217 faster 0 3.288559e+06 3.288563e+06 3.828
16 irregular 6 96 596 51 2 0.238 faster 0 3.288564e+06 3.288568e+06 3.501
16 irregular 6 97 597 70 1.500000e+00 0.378 faster 1 3.288569e+06 3.288571e+06 2.208
16 irregular 6 98 598 70 2.500000e+00 0.130 slower 0 3.288573e+06 3.288576e+06 3.247
16 irregular 6 99 599 71 2 0.196 faster 1 3.288577e+06 3.288581e+06 3.605
16 irregular 6 100 600 50 1 0.519 slower 1 3.288583e+06 3.288585e+06 1.725
16 regular 7 1 601 70 1.500000e+00 0.346 faster 1 3.288609e+06 3.288611e+06 2.248
16 regular 7 2 602 51 1.500000e+00 0.579 faster 0 3.288612e+06 3.288614e+06 2.171
16 regular 7 3 603 50 1.500000e+00 0.111 faster 0 3.288615e+06 3.288617e+06 2.135
16 regular 7 4 604 49 1.500000e+00 0.584 faster 0 3.288618e+06 3.288621e+06 2.228
16 regular 7 5 605 72 1.500000e+00 0.379 faster 1 3.288622e+06 3.288624e+06 2.128
16 regular 7 6 606 72 1.500000e+00 0.123 faster 1 3.288625e+06 3.288627e+06 2.208
16 regular 7 7 607 49 1.500000e+00 0.397 faster 0 3.288628e+06 3.288630e+06 2.094
16 regular 7 8 608 72 1.500000e+00 0.527 faster 1 3.288632e+06 3.288634e+06 2.189
16 regular 7 9 609 72 1.500000e+00 0.179 faster 1 3.288641e+06 3.288643e+06 2.142
16 regular 7 10 610 49 1.500000e+00 0.335 faster 0 3.288644e+06 3.288646e+06 2.392
16 regular 7 11 611 48 1.500000e+00 0.274 faster 0 3.288647e+06 3.288649e+06 2.158
16 regular 7 12 612 73 1.500000e+00 0.231 faster 1 3.288650e+06 3.288652e+06 2.335
16 regular 7 13 613 47 1.500000e+00 0.420 slower 1 3.288653e+06 3.288656e+06 2.260
16 regular 7 14 614 48 1.500000e+00 0.341 slower 1 3.288657e+06 3.288660e+06 2.783
16 regular 7 15 615 48 1.500000e+00 0.507 slower 1 3.288661e+06 3.288664e+06 2.433
16 regular 7 16 616 71 1.500000e+00 0.148 faster 1 3.288664e+06 3.288667e+06 2.165
16 regular 7 17 617 49 1.500000e+00 0.258 faster 0 3.288668e+06 3.288670e+06 2.240
16 regular 7 18 618 48 1.500000e+00 0.107 slower 1 3.288671e+06 3.288673e+06 2.305
16 regular 7 19 619 49 1.500000e+00 0.276 slower 1 3.288674e+06 3.288677e+06 2.206
16 regular 7 20 620 71 1.500000e+00 0.136 faster 1 3.288678e+06 3.288680e+06 2.319
16 regular 7 21 621 70 1.500000e+00 0.450 slower 0 3.288681e+06 3.288684e+06 2.231
16 regular 7 22 622 49 1.500000e+00 0.290 slower 1 3.288685e+06 3.288687e+06 2.208
16 regular 7 23 623 71 1.500000e+00 0.111 faster 1 3.288688e+06 3.288690e+06 2.248
16 regular 7 24 624 70 1.500000e+00 0.532 faster 1 3.288691e+06 3.288694e+06 2.477
16 regular 7 25 625 70 1.500000e+00 0.303 faster 1 3.288696e+06 3.288698e+06 2.248
16 regular 7 26 626 51 1.500000e+00 0.393 slower 1 3.288699e+06 3.288701e+06 2.374
16 regular 7 27 627 69 1.500000e+00 0.117 faster 1 3.288703e+06 3.288705e+06 2.354
16 regular 7 28 628 68 1.500000e+00 0.167 faster 1 3.288706e+06 3.288708e+06 2.302
16 regular 7 29 629 68 1.500000e+00 0.435 faster 1 3.288709e+06 3.288712e+06 2.520
16 regular 7 30 630 53 1.500000e+00 0.429 slower 1 3.288713e+06 3.288715e+06 2.389
16 regular 7 31 631 53 1.500000e+00 0.261 faster 0 3.288716e+06 3.288719e+06 2.446
16 regular 7 32 632 52 1.500000e+00 0.278 slower 1 3.288720e+06 3.288723e+06 2.466
16 regular 7 33 633 67 1.500000e+00 0.185 faster 1 3.288723e+06 3.288726e+06 2.238
16 regular 7 34 634 67 1.500000e+00 0.270 faster 1 3.288727e+06 3.288729e+06 2.336
16 regular 7 35 635 66 1.500000e+00 0.309 faster 1 3.288730e+06 3.288732e+06 2.358
16 regular 7 36 636 66 1.500000e+00 0.470 faster 1 3.288733e+06 3.288736e+06 2.172
16 regular 7 37 637 55 1.500000e+00 0.129 faster 0 3.288737e+06 3.288739e+06 2.311
16 regular 7 38 638 66 1.500000e+00 0.111 faster 1 3.288740e+06 3.288742e+06 2.331
16 regular 7 39 639 54 1.500000e+00 0.379 faster 0 3.288743e+06 3.288746e+06 2.474
16 regular 7 40 640 53 1.500000e+00 0.547 faster 0 3.288747e+06 3.288749e+06 2.249
16 regular 7 41 641 52 1.500000e+00 0.451 slower 1 3.288751e+06 3.288753e+06 2.429
16 regular 7 42 642 67 1.500000e+00 0.175 faster 1 3.288755e+06 3.288757e+06 2.238
16 regular 7 43 643 67 1.500000e+00 0.497 faster 1 3.288758e+06 3.288760e+06 2.242
16 regular 7 44 644 66 1.500000e+00 0.141 faster 1 3.288761e+06 3.288763e+06 2.262
16 regular 7 45 645 54 1.500000e+00 0.429 faster 0 3.288765e+06 3.288767e+06 2.302
16 regular 7 46 646 67 1.500000e+00 0.147 faster 1 3.288768e+06 3.288771e+06 2.303
16 regular 7 47 647 54 1.500000e+00 0.364 slower 1 3.288773e+06 3.288775e+06 2.066
16 regular 7 48 648 54 1.500000e+00 0.241 slower 1 3.288776e+06 3.288779e+06 2.245
16 regular 7 49 649 65 1.500000e+00 0.190 slower 0 3.288780e+06 3.288783e+06 2.641
16 regular 7 50 650 54 1.500000e+00 0.575 slower 1 3.288785e+06 3.288787e+06 2.455
16 regular 7 51 651 54 1.500000e+00 0.113 faster 0 3.288788e+06 3.288791e+06 2.209
16 regular 7 52 652 67 1.500000e+00 0.204 faster 1 3.288792e+06 3.288791e+06 -1.419
16 regular 7 53 653 54 1.500000e+00 0.286 faster 0 3.288797e+06 3.288799e+06 2.242
16 regular 7 54 654 67 1.500000e+00 0.210 faster 1 3.288801e+06 3.288803e+06 2.360
16 regular 7 55 655 67 1.500000e+00 0.495 faster 1 3.288805e+06 3.288807e+06 2.288
16 regular 7 56 656 54 1.500000e+00 0.228 faster 0 3.288808e+06 3.288810e+06 2.219
16 regular 7 57 657 67 1.500000e+00 0.512 faster 1 3.288812e+06 3.288814e+06 2.227
16 regular 7 58 658 67 1.500000e+00 0.260 faster 1 3.288815e+06 3.288817e+06 2.070
16 regular 7 59 659 54 1.500000e+00 0.393 slower 1 3.288819e+06 3.288822e+06 2.198
16 regular 7 60 660 66 1.500000e+00 0.547 faster 1 3.288823e+06 3.288826e+06 2.708
16 regular 7 61 661 65 1.500000e+00 0.504 faster 1 3.288827e+06 3.288830e+06 2.385
16 regular 7 62 662 55 1.500000e+00 0.389 faster 0 3.288835e+06 3.288838e+06 2.265
16 regular 7 63 663 66 1.500000e+00 0.500 slower 0 3.288839e+06 3.288841e+06 2.625
16 regular 7 64 664 67 1.500000e+00 0.463 faster 1 3.288842e+06 3.288845e+06 2.365
16 regular 7 65 665 54 1.500000e+00 0.581 slower 1 3.288846e+06 3.288848e+06 2.385
16 regular 7 66 666 66 1.500000e+00 0.593 none 2 3.288850e+06 3.288855e+06 4.500
16 regular 7 67 667 54 1.500000e+00 0.318 slower 1 3.288856e+06 3.288859e+06 2.974
16 regular 7 68 668 55 1.500000e+00 0.233 faster 0 3.288860e+06 3.288863e+06 2.330
16 regular 7 69 669 66 1.500000e+00 0.324 faster 1 3.288865e+06 3.288867e+06 2.311
16 regular 7 70 670 54 1.500000e+00 0.545 faster 0 3.288869e+06 3.288871e+06 2.247
16 regular 7 71 671 67 1.500000e+00 0.228 faster 1 3.288872e+06 3.288875e+06 2.355
16 regular 7 72 672 54 1.500000e+00 0.211 faster 0 3.288876e+06 3.288879e+06 2.508
16 regular 7 73 673 53 1.500000e+00 0.279 faster 0 3.288880e+06 3.288882e+06 2.432
16 regular 7 74 674 52 1.500000e+00 0.142 faster 0 3.288883e+06 3.288885e+06 2.205
16 regular 7 75 675 69 1.500000e+00 0.528 faster 1 3.288887e+06 3.288889e+06 1.941
16 regular 7 76 676 69 1.500000e+00 0.413 faster 1 3.288890e+06 3.288893e+06 2.946
16 regular 7 77 677 68 1.500000e+00 0.517 faster 1 3.288894e+06 3.288897e+06 2.504
16 regular 7 78 678 52 1.500000e+00 0.404 faster 0 3.288898e+06 3.288901e+06 2.569
16 regular 7 79 679 51 1.500000e+00 0.325 faster 0 3.288902e+06 3.288904e+06 2.202
16 regular 7 80 680 50 1.500000e+00 0.346 faster 0 3.288905e+06 3.288908e+06 2.325
16 regular 7 81 681 71 1.500000e+00 0.397 none 2 3.288909e+06 3.288913e+06 4.499
16 regular 7 82 682 71 1.500000e+00 0.344 faster 1 3.288914e+06 3.288916e+06 2.288
16 regular 7 83 683 50 1.500000e+00 0.138 slower 1 3.288918e+06 3.288920e+06 2.410
16 regular 7 84 684 70 1.500000e+00 0.449 faster 1 3.288923e+06 3.288926e+06 2.513
16 regular 7 85 685 51 1.500000e+00 0.111 slower 1 3.288927e+06 3.288929e+06 2.337
16 regular 7 86 686 51 1.500000e+00 0.288 slower 1 3.288931e+06 3.288933e+06 2.430
16 regular 7 87 687 52 1.500000e+00 0.325 slower 1 3.288937e+06 3.288939e+06 2.389
16 regular 7 88 688 52 1.500000e+00 0.584 faster 0 3.288941e+06 3.288943e+06 2.119
16 regular 7 89 689 69 1.500000e+00 0.354 faster 1 3.288944e+06 3.288946e+06 1.890
16 regular 7 90 690 68 1.500000e+00 0.192 slower 0 3.288948e+06 3.288950e+06 2.346
16 regular 7 91 691 51 1.500000e+00 0.481 slower 1 3.288952e+06 3.288954e+06 2.337
16 regular 7 92 692 69 1.500000e+00 0.425 faster 1 3.288979e+06 3.288981e+06 2.159
16 regular 7 93 693 68 1.500000e+00 0.204 faster 1 3.288982e+06 3.288984e+06 2.074
16 regular 7 94 694 52 1.500000e+00 0.123 faster 0 3.288984e+06 3.288986e+06 2.136
16 regular 7 95 695 51 1.500000e+00 0.218 faster 0 3.288988e+06 3.288990e+06 2.309
16 regular 7 96 696 50 1.500000e+00 0.545 faster 0 3.288991e+06 3.288994e+06 2.298
16 regular 7 97 697 71 1.500000e+00 0.389 faster 1 3.288995e+06 3.288997e+06 2.245
16 regular 7 98 698 70 1.500000e+00 0.312 faster 1 3.288998e+06 3.289000e+06 2.255
16 regular 7 99 699 70 1.500000e+00 0.493 faster 1 3.289002e+06 3.289004e+06 2.188
16 regular 7 100 700 51 1.500000e+00 0.266 faster 0 3.289005e+06 3.289007e+06 2.485
16 irregular 8 1 701 50 1 0.426 faster 0 3.290207e+06 3.290209e+06 1.666
16 irregular 8 2 702 49 3 0.109 faster 0 3.290210e+06 3.290213e+06 3.652
16 irregular 8 3 703 72 2.500000e+00 0.108 faster 1 3.290214e+06 3.290217e+06 3.178
16 irregular 8 4 704 48 1.500000e+00 0.554 faster 0 3.290220e+06 3.290222e+06 2.294
16 irregular 8 5 705 73 1.500000e+00 0.588 faster 1 3.290223e+06 3.290225e+06 2.106
16 irregular 8 6 706 72 2 0.414 faster 1 3.290227e+06 3.290230e+06 2.637
16 irregular 8 7 707 48 2.500000e+00 0.490 faster 0 3.290231e+06 3.290235e+06 3.252
16 irregular 8 8 708 47 1.500000e+00 0.334 faster 0 3.290236e+06 3.290238e+06 2.132
16 irregular 8 9 709 46 3 0.293 faster 0 3.290239e+06 3.290243e+06 3.760
16 irregular 8 10 710 45 2 0.364 faster 0 3.290244e+06 3.290247e+06 2.735
16 irregular 8 11 711 44 2.500000e+00 0.374 faster 0 3.290248e+06 3.290252e+06 3.757
16 irregular 8 12 712 43 2 0.368 slower 1 3.290253e+06 3.290256e+06 2.836
16 irregular 8 13 713 76 1.500000e+00 0.417 faster 1 3.290257e+06 3.290259e+06 2.546
16 irregular 8 14 714 44 1 0.422 slower 1 3.290260e+06 3.290262e+06 1.762
16 irregular 8 15 715 75 2 0.418 faster 1 3.290263e+06 3.290266e+06 2.779
16 irregular 8 16 716 45 3 0.154 slower 1 3.290267e+06 3.290271e+06 3.822
16 irregular 8 17 717 46 2 0.272 slower 1 3.290272e+06 3.290275e+06 2.988
16 irregular 8 18 718 74 2 0.427 faster 1 3.290276e+06 3.290279e+06 2.839
16 irregular 8 19 719 73 1.500000e+00 0.122 faster 1 3.290280e+06 3.290283e+06 2.995
16 irregular 8 20 720 73 1 0.512 faster 1 3.290284e+06 3.290286e+06 1.634
16 irregular 8 21 721 72 3 0.460 faster 1 3.290287e+06 3.290291e+06 3.726
16 irregular 8 22 722 72 3 0.566 faster 1 3.290292e+06 3.290296e+06 3.769
16 irregular 8 23 723 71 2.500000e+00 0.277 faster 1 3.290297e+06 3.290296e+06 -1.523
16 irregular 8 24 724 49 2 0.461 faster 0 3.290301e+06 3.290304e+06 2.928
16 irregular 8 25 725 48 3 0.434 slower 1 3.290305e+06 3.290309e+06 3.748
16 irregular 8 26 726 71 1 0.307 faster 1 3.290310e+06 3.290312e+06 1.722
16 irregular 8 27 727 71 2.500000e+00 0.329 faster 1 3.290313e+06 3.290317e+06 3.463
16 irregular 8 28 728 50 2 0.582 faster 0 3.290318e+06 3.290321e+06 2.820
16 irregular 8 29 729 71 1 0.286 faster 1 3.290322e+06 3.290324e+06 1.693
16 irregular 8 30 730 71 1.500000e+00 0.139 faster 1 3.290325e+06 3.290327e+06 2.176
16 irregular 8 31 731 70 1 0.580 faster 1 3.290328e+06 3.290330e+06 1.648
16 irregular 8 32 732 50 2 0.102 faster 0 3.290331e+06 3.290334e+06 2.787
16 irregular 8 33 733 49 3 0.405 faster 0 3.290335e+06 3.290338e+06 3.853
16 irregular 8 34 734 48 2.500000e+00 0.103 slower 1 3.290340e+06 3.290344e+06 3.859
16 irregular 8 35 735 49 2.500000e+00 0.323 slower 1 3.290345e+06 3.290348e+06 3.273
16 irregular 8 36 736 71 3 0.500 faster 1 3.290349e+06 3.290353e+06 3.692
16 irregular 8 37 737 50 3 0.551 slower 1 3.290354e+06 3.290359e+06 4.920
16 irregular 8 38 738 70 2 0.461 faster 1 3.290361e+06 3.290365e+06 3.512
16 irregular 8 39 739 51 1.500000e+00 0.514 faster 0 3.290366e+06 3.290369e+06 2.320
16 irregular 8 40 740 70 1 0.398 faster 1 3.290370e+06 3.290371e+06 1.726
16 irregular 8 41 741 50 1 0.245 faster 0 3.290373e+06 3.290374e+06 1.641
16 irregular 8 42 742 49 1 0.478 slower 1 3.290376e+06 3.290377e+06 1.883
16 irregular 8 43 743 50 2.500000e+00 0.393 faster 0 3.290379e+06 3.290382e+06 3.191
16 irregular 8 44 744 71 2 0.475 faster 1 3.290383e+06 3.290386e+06 2.653
16 irregular 8 45 745 49 1 0.162 faster 0 3.290387e+06 3.290389e+06 1.882
16 irregular 8 46 746 48 2.500000e+00 0.540 faster 0 3.290390e+06 3.290394e+06 3.207
16 irregular 8 47 747 73 1.500000e+00 0.202 faster 1 3.290396e+06 3.290398e+06 2.547
16 irregular 8 48 748 48 2 0.166 faster 0 3.290399e+06 3.290403e+06 3.638
16 irregular 8 49 749 73 1.500000e+00 0.600 faster 1 3.290407e+06 3.290409e+06 2.193
16 irregular 8 50 750 47 2 0.462 faster 0 3.290410e+06 3.290413e+06 2.907
16 irregular 8 51 751 74 2 0.299 faster 1 3.290415e+06 3.290417e+06 2.735
16 irregular 8 52 752 47 2.500000e+00 0.431 faster 0 3.290419e+06 3.290422e+06 3.276
16 irregular 8 53 753 46 3 0.464 slower 1 3.290424e+06 3.290428e+06 3.804
16 irregular 8 54 754 74 2 0.393 faster 1 3.290430e+06 3.290433e+06 2.702
16 irregular 8 55 755 47 1.500000e+00 0.264 slower 1 3.290434e+06 3.290436e+06 2.416
16 irregular 8 56 756 47 1.500000e+00 0.178 faster 0 3.290438e+06 3.290440e+06 2.344
16 irregular 8 57 757 74 2.500000e+00 0.120 faster 1 3.290443e+06 3.290446e+06 3.180
16 irregular 8 58 758 73 1.500000e+00 0.177 faster 1 3.290447e+06 3.290450e+06 2.162
16 irregular 8 59 759 73 2 0.499 faster 1 3.290451e+06 3.290453e+06 2.620
16 irregular 8 60 760 72 2.500000e+00 0.268 faster 1 3.290455e+06 3.290458e+06 3.233
16 irregular 8 61 761 72 1.500000e+00 0.122 faster 1 3.290460e+06 3.290462e+06 2.273
16 irregular 8 62 762 49 3 0.213 faster 0 3.290463e+06 3.290467e+06 4.621
16 irregular 8 63 763 48 1.500000e+00 0.598 faster 0 3.290470e+06 3.290472e+06 2.424
16 irregular 8 64 764 73 2 0.221 faster 1 3.290475e+06 3.290478e+06 2.755
16 irregular 8 65 765 47 1 0.144 faster 0 3.290479e+06 3.290481e+06 1.688
16 irregular 8 66 766 74 1.500000e+00 0.307 faster 1 3.290484e+06 3.290486e+06 2.163
16 irregular 8 67 767 47 2 0.413 faster 0 3.290487e+06 3.290491e+06 3.148
16 irregular 8 68 768 74 1 0.252 faster 1 3.290491e+06 3.290493e+06 1.782
16 irregular 8 69 769 74 1 0.188 faster 1 3.290494e+06 3.290496e+06 1.777
16 irregular 8 70 770 47 1 0.593 faster 0 3.290498e+06 3.290499e+06 1.822
16 irregular 8 71 771 74 2.500000e+00 0.372 faster 1 3.290500e+06 3.290504e+06 3.114
16 irregular 8 72 772 46 3 0.240 slower 1 3.290504e+06 3.290509e+06 4.222
16 irregular 8 73 773 73 1 0.293 faster 1 3.290510e+06 3.290511e+06 1.601
16 irregular 8 74 774 73 3 0.164 faster 1 3.290512e+06 3.290516e+06 3.682
16 irregular 8 75 775 72 1 0.593 faster 1 3.290517e+06 3.290519e+06 1.725
16 irregular 8 76 776 72 2.500000e+00 0.220 faster 1 3.290520e+06 3.290523e+06 3.198
16 irregular 8 77 777 49 1.500000e+00 0.575 faster 0 3.290525e+06 3.290527e+06 2.386
16 irregular 8 78 778 72 1 0.532 faster 1 3.290529e+06 3.290531e+06 1.770
16 irregular 8 79 779 72 3 0.348 faster 1 3.290532e+06 3.290536e+06 3.860
16 irregular 8 80 780 49 1 0.317 slower 1 3.290537e+06 3.290539e+06 2.413
16 irregular 8 81 781 71 2 0.271 faster 1 3.290541e+06 3.290543e+06 2.735
16 irregular 8 82 782 70 2.500000e+00 0.160 faster 1 3.290544e+06 3.290547e+06 3.194
16 irregular 8 83 783 70 3 0.248 slower 0 3.290548e+06 3.290553e+06 4.937
16 irregular 8 84 784 71 3 0.165 faster 1 3.290555e+06 3.290558e+06 3.744
16 irregular 8 85 785 70 3 0.240 faster 1 3.290559e+06 3.290564e+06 4.500
16 irregular 8 86 786 50 2 0.223 faster 0 3.290565e+06 3.290568e+06 2.579
16 irregular 8 87 787 49 3 0.229 slower 1 3.290569e+06 3.290573e+06 3.814
16 irregular 8 88 788 50 2.500000e+00 0.527 slower 1 3.290574e+06 3.290577e+06 3.087
16 irregular 8 89 789 70 1.500000e+00 0.577 slower 0 3.290578e+06 3.290581e+06 2.582
16 irregular 8 90 790 71 2.500000e+00 0.103 faster 1 3.290582e+06 3.290585e+06 3.884
16 irregular 8 91 791 50 1.500000e+00 0.281 slower 1 3.290586e+06 3.290589e+06 2.284
16 irregular 8 92 792 70 3 0.250 faster 1 3.290590e+06 3.290595e+06 4.590
16 irregular 8 93 793 51 2.500000e+00 0.206 slower 1 3.290596e+06 3.290599e+06 3.604
16 irregular 8 94 794 69 2.500000e+00 0.174 faster 1 3.290601e+06 3.290604e+06 3.244
16 irregular 8 95 795 52 1.500000e+00 0.576 faster 0 3.290605e+06 3.290608e+06 2.617
16 irregular 8 96 796 69 3 0.398 faster 1 3.290609e+06 3.290613e+06 3.700
16 irregular 8 97 797 51 2.500000e+00 0.588 faster 0 3.290615e+06 3.290618e+06 3.607
16 irregular 8 98 798 50 1 0.558 slower 1 3.290620e+06 3.290622e+06 1.663
16 irregular 8 99 799 51 1.500000e+00 0.226 slower 1 3.290623e+06 3.290624e+06 1.892
16 irregular 8 100 800 51 1 0.136 slower 1 3.290625e+06 3.290627e+06 1.871
16 regular 9 1 801 52 3 0.271 faster 0 3.290678e+06 3.290682e+06 3.716
16 regular 9 2 802 69 3 0.434 faster 1 3.290683e+06 3.290687e+06 4.026
16 regular 9 3 803 51 3 0.579 faster 0 3.290688e+06 3.290692e+06 3.854
16 regular 9 4 804 50 3 0.268 faster 0 3.290693e+06 3.290697e+06 4.241
16 regular 9 5 805 49 3 0.294 slower 1 3.290698e+06 3.290702e+06 4.074
16 regular 9 6 806 70 3 0.243 faster 1 3.290703e+06 3.290707e+06 3.708
16 regular 9 7 807 70 3 0.276 faster 1 3.290709e+06 3.290713e+06 4.603
16 regular 9 8 808 69 3 0.527 faster 1 3.290715e+06 3.290718e+06 3.788
16 regular 9 9 809 51 3 0.179 slower 1 3.290720e+06 3.290725e+06 4.104
16 regular 9 10 810 52 3 0.599 slower 1 3.290726e+06 3.290731e+06 4.684
16 regular 9 11 811 52 3 0.340 slower 1 3.290732e+06 3.290736e+06 3.755
16 regular 9 12 812 53 3 0.473 faster 0 3.290738e+06 3.290742e+06 4.779
16 regular 9 13 813 68 3 0.202 faster 1 3.290744e+06 3.290748e+06 4.369
16 regular 9 14 814 52 3 0.243 faster 0 3.290749e+06 3.290753e+06 3.822
16 regular 9 15 815 69 3 0.504 faster 1 3.290755e+06 3.290759e+06 3.769
16 regular 9 16 816 52 3 0.251 slower 1 3.290760e+06 3.290764e+06 4.030
16 regular 9 17 817 52 3 0.589 faster 0 3.290765e+06 3.290769e+06 3.829
16 regular 9 18 818 69 3 0.490 slower 0 3.290770e+06 3.290775e+06 4.320
16 regular 9 19 819 70 3 0.364 faster 1 3.290776e+06 3.290780e+06 4.481
16 regular 9 20 820 51 3 0.380 slower 1 3.290782e+06 3.290786e+06 3.918
16 regular 9 21 821 69 3 0.583 faster 1 3.290788e+06 3.290791e+06 3.901
16 regular 9 22 822 68 3 0.140 slower 0 3.290793e+06 3.290797e+06 3.985
16 regular 9 23 823 69 3 0.263 slower 0 3.290797e+06 3.290802e+06 4.211
16 regular 9 24 824 50 3 0.163 faster 0 3.290802e+06 3.290807e+06 4.876
16 regular 9 25 825 49 3 0.579 slower 1 3.290809e+06 3.290812e+06 3.708
16 regular 9 26 826 49 3 0.130 slower 1 3.290816e+06 3.290820e+06 3.743
16 regular 9 27 827 70 3 0.112 faster 1 3.290821e+06 3.290826e+06 4.663
16 regular 9 28 828 50 3 0.118 faster 0 3.290827e+06 3.290831e+06 4.325
16 regular 9 29 829 49 3 0.128 slower 1 3.290833e+06 3.290837e+06 3.627
16 regular 9 30 830 70 3 0.559 faster 1 3.290839e+06 3.290843e+06 3.785
16 regular 9 31 831 70 3 0.450 slower 0 3.290845e+06 3.290849e+06 4.013
16 regular 9 32 832 49 3 0.464 slower 1 3.290852e+06 3.290857e+06 5.109
16 regular 9 33 833 70 3 0.186 faster 1 3.290858e+06 3.290862e+06 3.776
16 regular 9 34 834 50 3 0.185 slower 1 3.290863e+06 3.290868e+06 4.472
16 regular 9 35 835 69 3 0.510 faster 1 3.290869e+06 3.290873e+06 3.934
16 regular 9 36 836 69 3 0.546 faster 1 3.290875e+06 3.290879e+06 4.012
16 regular 9 37 837 52 3 0.194 slower 1 3.290882e+06 3.290885e+06 3.898
16 regular 9 38 838 68 3 0.205 slower 0 3.290888e+06 3.290892e+06 4.396
16 regular 9 39 839 51 3 0.485 slower 1 3.290894e+06 3.290898e+06 3.809
16 regular 9 40 840 68 3 0.422 slower 0 3.290899e+06 3.290904e+06 4.455
16 regular 9 41 841 69 3 0.274 faster 1 3.290905e+06 3.290909e+06 3.793
16 regular 9 42 842 69 3 0.415 faster 1 3.290910e+06 3.290914e+06 3.847
16 regular 9 43 843 52 3 0.251 faster 0 3.290915e+06 3.290919e+06 4.041
16 regular 9 44 844 69 3 0.491 faster 1 3.290921e+06 3.290926e+06 4.602
16 regular 9 45 845 51 3 0.579 slower 1 3.290927e+06 3.290931e+06 3.854
16 regular 9 46 846 52 3 0.371 slower 1 3.290933e+06 3.290936e+06 3.760
16 regular 9 47 847 52 3 0.303 slower 1 3.290938e+06 3.290942e+06 3.797
16 regular 9 48 848 53 3 0.395 slower 1 3.290943e+06 3.290947e+06 3.714
16 regular 9 49 849 67 3 0.541 faster 1 3.290949e+06 3.290953e+06 4.877
16 regular 9 50 850 54 3 0.369 faster 0 3.290954e+06 3.290958e+06 4.021
16 regular 9 51 851 67 3 0.424 faster 1 3.290960e+06 3.290965e+06 5.491
16 regular 9 52 852 53 3 0.525 faster 0 3.290967e+06 3.290971e+06 3.934
16 regular 9 53 853 68 3 0.156 faster 1 3.290972e+06 3.290976e+06 3.868
16 regular 9 54 854 53 3 0.518 faster 0 3.290979e+06 3.290983e+06 3.773
16 regular 9 55 855 68 3 0.324 slower 0 3.290984e+06 3.290988e+06 4.079
16 regular 9 56 856 69 3 0.205 slower 0 3.290989e+06 3.290993e+06 4.580
16 regular 9 57 857 50 3 0.136 slower 1 3.290994e+06 3.290998e+06 3.954
16 regular 9 58 858 70 3 0.452 faster 1 3.290999e+06 3.291003e+06 4.140
16 regular 9 59 859 69 3 0.518 slower 0 3.291004e+06 3.291008e+06 3.817
16 regular 9 60 860 70 3 0.521 slower 0 3.291010e+06 3.291014e+06 3.653
16 regular 9 61 861 71 3 0.363 faster 1 3.291015e+06 3.291019e+06 4.266
16 regular 9 62 862 49 3 0.210 slower 1 3.291020e+06 3.291024e+06 4.339
16 regular 9 63 863 70 3 0.565 slower 0 3.291027e+06 3.291032e+06 4.434
16 regular 9 64 864 49 3 0.445 slower 1 3.291033e+06 3.291037e+06 4.225
16 regular 9 65 865 49 3 0.489 slower 1 3.291039e+06 3.291043e+06 4.155
16 regular 9 66 866 70 3 0.569 faster 1 3.291044e+06 3.291048e+06 3.900
16 regular 9 67 867 50 3 0.256 faster 0 3.291049e+06 3.291053e+06 3.871
16 regular 9 68 868 71 3 0.121 faster 1 3.291054e+06 3.291058e+06 3.865
16 regular 9 69 869 50 3 0.522 faster 0 3.291059e+06 3.291064e+06 4.572
16 regular 9 70 870 71 3 0.209 faster 1 3.291065e+06 3.291069e+06 3.793
16 regular 9 71 871 71 3 0.489 faster 1 3.291070e+06 3.291074e+06 4.024
16 regular 9 72 872 50 3 0.364 slower 1 3.291076e+06 3.291080e+06 4.410
16 regular 9 73 873 50 3 0.356 slower 1 3.291082e+06 3.291086e+06 4.106
16 regular 9 74 874 51 3 0.265 slower 1 3.291087e+06 3.291091e+06 4.264
16 regular 9 75 875 69 3 0.217 slower 0 3.291092e+06 3.291096e+06 3.810
16 regular 9 76 876 50 3 0.529 slower 1 3.291098e+06 3.291101e+06 3.823
16 regular 9 77 877 51 3 0.222 slower 1 3.291103e+06 3.291108e+06 4.709
16 regular 9 78 878 69 3 0.520 faster 1 3.291110e+06 3.291113e+06 3.775
16 regular 9 79 879 68 3 0.360 faster 1 3.291114e+06 3.291118e+06 3.734
16 regular 9 80 880 52 3 0.125 faster 0 3.291119e+06 3.291123e+06 3.956
16 regular 9 81 881 69 3 0.213 faster 1 3.291125e+06 3.291129e+06 3.766
16 regular 9 82 882 52 3 0.264 faster 0 3.291132e+06 3.291135e+06 3.846
16 regular 9 83 883 69 3 0.183 faster 1 3.291136e+06 3.291140e+06 3.864
16 regular 9 84 884 51 3 0.468 faster 0 3.291141e+06 3.291146e+06 4.368
16 regular 9 85 885 50 3 0.269 slower 1 3.291147e+06 3.291151e+06 4.065
16 regular 9 86 886 51 3 0.558 slower 1 3.291152e+06 3.291157e+06 4.855
16 regular 9 87 887 69 3 0.257 faster 1 3.291158e+06 3.291162e+06 3.874
16 regular 9 88 888 68 3 0.274 slower 0 3.291163e+06 3.291167e+06 3.984
16 regular 9 89 889 69 3 0.271 faster 1 3.291174e+06 3.291178e+06 4.015
16 regular 9 90 890 51 3 0.580 slower 1 3.291181e+06 3.291185e+06 4.386
16 regular 9 91 891 52 3 0.543 faster 0 3.291187e+06 3.291191e+06 4.279
16 regular 9 92 892 69 3 0.104 faster 1 3.291194e+06 3.291198e+06 3.805
16 regular 9 93 893 69 3 0.213 faster 1 3.291199e+06 3.291202e+06 3.670
16 regular 9 94 894 68 3 0.484 faster 1 3.291204e+06 3.291208e+06 3.993
16 regular 9 95 895 52 3 0.115 slower 1 3.291209e+06 3.291213e+06 3.824
16 regular 9 96 896 53 3 0.114 slower 1 3.291214e+06 3.291218e+06 3.976
16 regular 9 97 897 67 3 0.504 slower 0 3.291220e+06 3.291224e+06 4.695
16 regular 9 98 898 68 3 0.241 slower 0 3.291226e+06 3.291229e+06 3.670
16 regular 9 99 899 69 3 0.331 slower 0 3.291231e+06 3.291235e+06 4.076
16 regular 9 100 900 50 3 0.315 slower 1 3.291236e+06 3.291241e+06 4.483
16 irregular 10 1 901 69 3 0.289 faster 1 3.291273e+06 3.291277e+06 3.888
16 irregular 10 2 902 69 2 0.591 faster 1 3.291279e+06 3.291281e+06 2.572
16 irregular 10 3 903 68 1.500000e+00 0.591 faster 1 3.291283e+06 3.291285e+06 2.211
16 irregular 10 4 904 68 1.500000e+00 0.175 faster 1 3.291286e+06 3.291288e+06 2.138
16 irregular 10 5 905 53 3 0.232 faster 0 3.291289e+06 3.291288e+06 -0.900
16 irregular 10 6 906 52 2 0.314 faster 0 3.291293e+06 3.291295e+06 2.644
16 irregular 10 7 907 69 3 0.117 faster 1 3.291296e+06 3.291300e+06 3.614
16 irregular 10 8 908 69 2 0.491 faster 1 3.291301e+06 3.291304e+06 2.668
16 irregular 10 9 909 52 2 0.354 slower 1 3.291305e+06 3.291308e+06 2.903
16 irregular 10 10 910 68 1 0.214 faster 1 3.291308e+06 3.291310e+06 1.841
16 irregular 10 11 911 67 2 0.495 faster 1 3.291311e+06 3.291314e+06 2.906
16 irregular 10 12 912 67 1 0.590 faster 1 3.291316e+06 3.291318e+06 1.763
16 irregular 10 13 913 66 2.500000e+00 0.569 faster 1 3.291320e+06 3.291324e+06 3.860
16 irregular 10 14 914 66 1 0.419 faster 1 3.291326e+06 3.291328e+06 1.983
16 irregular 10 15 915 55 1.500000e+00 0.589 slower 1 3.291330e+06 3.291332e+06 2.307
16 irregular 10 16 916 65 1.500000e+00 0.564 slower 0 3.291334e+06 3.291336e+06 2.145
16 irregular 10 17 917 66 3 0.251 slower 0 3.291337e+06 3.291341e+06 4.039
16 irregular 10 18 918 53 1.500000e+00 0.435 slower 1 3.291343e+06 3.291345e+06 2.769
16 irregular 10 19 919 66 2.500000e+00 0.130 slower 0 3.291347e+06 3.291350e+06 3.381
16 irregular 10 20 920 67 1.500000e+00 0.563 faster 1 3.291352e+06 3.291355e+06 2.248
16 irregular 10 21 921 53 1 0.423 faster 0 3.291356e+06 3.291358e+06 1.759
16 irregular 10 22 922 52 1.500000e+00 0.487 faster 0 3.291359e+06 3.291361e+06 2.280
16 irregular 10 23 923 51 1 0.239 faster 0 3.291363e+06 3.291365e+06 1.771
16 irregular 10 24 924 70 2 0.288 faster 1 3.291368e+06 3.291371e+06 3.111
16 irregular 10 25 925 69 1.500000e+00 0.103 faster 1 3.291372e+06 3.291374e+06 2.218
16 irregular 10 26 926 51 3 0.261 faster 0 3.291375e+06 3.291379e+06 3.878
16 irregular 10 27 927 50 1 0.413 faster 0 3.291380e+06 3.291381e+06 1.773
16 irregular 10 28 928 49 2 0.117 slower 1 3.291383e+06 3.291385e+06 2.640
16 irregular 10 29 929 70 2.500000e+00 0.254 faster 1 3.291386e+06 3.291390e+06 3.224
16 irregular 10 30 930 70 2 0.501 faster 1 3.291391e+06 3.291393e+06 2.716
16 irregular 10 31 931 51 2 0.584 faster 0 3.291395e+06 3.291397e+06 2.730
16 irregular 10 32 932 70 2.500000e+00 0.369 faster 1 3.291398e+06 3.291402e+06 3.611
16 irregular 10 33 933 50 2.500000e+00 0.319 faster 0 3.291404e+06 3.291407e+06 3.302
16 irregular 10 34 934 49 1 0.483 faster 0 3.291410e+06 3.291412e+06 2.461
16 irregular 10 35 935 48 1.500000e+00 0.368 faster 0 3.291413e+06 3.291416e+06 2.966
16 irregular 10 36 936 73 2.500000e+00 0.353 faster 1 3.291418e+06 3.291421e+06 3.182
16 irregular 10 37 937 72 3 0.245 faster 1 3.291422e+06 3.291421e+06 -0.931
16 irregular 10 38 938 48 3 0.548 faster 0 3.291427e+06 3.291421e+06 -5.813
16 irregular 10 39 939 73 3 0.138 faster 1 3.291432e+06 3.291421e+06 -10.705
16 irregular 10 40 940 48 3 0.343 faster 0 3.291438e+06 3.291421e+06 -16.244
16 irregular 10 41 941 73 3 0.249 none 2 3.291442e+06 3.291448e+06 6.000
16 irregular 10 42 942 47 2.500000e+00 0.238 none 2 3.291448e+06 3.291454e+06 5.500
16 irregular 10 43 943 47 3 0.568 slower 1 3.291457e+06 3.291461e+06 3.897
16 irregular 10 44 944 47 3 0.414 slower 1 3.291462e+06 3.291466e+06 3.805
16 irregular 10 45 945 72 1.500000e+00 0.519 faster 1 3.291467e+06 3.291470e+06 2.437
16 irregular 10 46 946 48 2 0.564 none 2 3.291472e+06 3.291477e+06 5.000
16 irregular 10 47 947 48 2.500000e+00 0.448 slower 1 3.291478e+06 3.291481e+06 3.474
16 irregular 10 48 948 71 3 0.509 faster 1 3.291482e+06 3.291486e+06 3.746
16 irregular 10 49 949 49 2.500000e+00 0.465 faster 0 3.291487e+06 3.291490e+06 3.194
16 irregular 10 50 950 72 2 0.208 faster 1 3.291493e+06 3.291495e+06 2.580
16 irregular 10 51 951 71 2.500000e+00 0.170 none 2 3.291496e+06 3.291502e+06 5.500
16 irregular 10 52 952 49 1.500000e+00 0.310 slower 1 3.291503e+06 3.291506e+06 2.776
16 irregular 10 53 953 71 1 0.557 faster 1 3.291508e+06 3.291511e+06 2.443
16 irregular 10 54 954 70 1 0.348 faster 1 3.291512e+06 3.291514e+06 1.749
16 irregular 10 55 955 70 3 0.442 slower 0 3.291516e+06 3.291520e+06 3.994
16 irregular 10 56 956 49 1 0.424 slower 1 3.291521e+06 3.291524e+06 2.820
16 irregular 10 57 957 50 2.500000e+00 0.191 slower 1 3.291525e+06 3.291528e+06 2.876
16 irregular 10 58 958 70 1 0.102 slower 0 3.291529e+06 3.291531e+06 1.821
16 irregular 10 59 959 49 2.500000e+00 0.395 slower 1 3.291532e+06 3.291536e+06 3.634
16 irregular 10 60 960 70 1 0.496 slower 0 3.291537e+06 3.291539e+06 2.113
16 irregular 10 61 961 49 3 0.300 slower 1 3.291540e+06 3.291544e+06 4.037
16 irregular 10 62 962 49 2.500000e+00 0.254 slower 1 3.291546e+06 3.291551e+06 5.147
16 irregular 10 63 963 50 2 0.308 faster 0 3.291552e+06 3.291555e+06 2.920
16 irregular 10 64 964 49 1.500000e+00 0.401 slower 1 3.291557e+06 3.291560e+06 2.264
16 irregular 10 65 965 71 2.500000e+00 0.124 slower 0 3.291562e+06 3.291565e+06 3.141
16 irregular 10 66 966 48 1.500000e+00 0.561 slower 1 3.291567e+06 3.291571e+06 4.194
16 irregular 10 67 967 49 1 0.414 slower 1 3.291572e+06 3.291574e+06 2.421
16 irregular 10 68 968 71 2.500000e+00 0.582 slower 0 3.291577e+06 3.291580e+06 3.553
16 irregular 10 69 969 48 1 0.170 slower 1 3.291581e+06 3.291583e+06 1.862
16 irregular 10 70 970 49 3 0.442 slower 1 3.291584e+06 3.291588e+06 3.936
16 irregular 10 71 971 49 2 0.232 slower 1 3.291589e+06 3.291592e+06 2.728
16 irregular 10 72 972 50 2.500000e+00 0.460 slower 1 3.291595e+06 3.291598e+06 3.411
16 irregular 10 73 973 70 1.500000e+00 0.447 slower 0 3.291601e+06 3.291603e+06 2.395
16 irregular 10 74 974 49 1 0.519 slower 1 3.291607e+06 3.291608e+06 1.690
16 irregular 10 75 975 70 1.500000e+00 0.396 slower 0 3.291610e+06 3.291613e+06 2.633
16 irregular 10 76 976 71 1 0.372 faster 1 3.291614e+06 3.291616e+06 1.733
16 irregular 10 77 977 71 2 0.151 faster 1 3.291617e+06 3.291619e+06 2.797
16 irregular 10 78 978 70 2.500000e+00 0.212 slower 0 3.291621e+06 3.291624e+06 3.252
16 irregular 10 79 979 71 3 0.379 slower 0 3.291626e+06 3.291630e+06 3.875
16 irregular 10 80 980 72 2 0.268 slower 0 3.291632e+06 3.291635e+06 2.925
16 irregular 10 81 981 47 2 0.479 slower 1 3.291636e+06 3.291639e+06 2.337
16 irregular 10 82 982 47 1 0.125 faster 0 3.291640e+06 3.291642e+06 1.747
16 irregular 10 83 983 46 2.500000e+00 0.293 faster 0 3.291643e+06 3.291646e+06 3.260
16 irregular 10 84 984 75 1 0.272 faster 1 3.291647e+06 3.291649e+06 1.877
16 irregular 10 85 985 46 2.500000e+00 0.404 slower 1 3.291651e+06 3.291654e+06 3.662
16 irregular 10 86 986 46 1.500000e+00 0.412 slower 1 3.291656e+06 3.291658e+06 2.257
16 irregular 10 87 987 47 1.500000e+00 0.281 slower 1 3.291660e+06 3.291662e+06 2.167
16 irregular 10 88 988 73 1.500000e+00 0.126 faster 1 3.291663e+06 3.291665e+06 2.727
16 irregular 10 89 989 72 2 0.354 slower 0 3.291667e+06 3.291669e+06 2.740
16 irregular 10 90 990 73 1 0.559 slower 0 3.291671e+06 3.291673e+06 2.127
16 irregular 10 91 991 74 3 0.266 slower 0 3.291674e+06 3.291678e+06 3.940
16 irregular 10 92 992 75 2 0.546 faster 1 3.291680e+06 3.291682e+06 2.743
16 irregular 10 93 993 45 1 0.400 slower 1 3.291683e+06 3.291685e+06 1.706
16 irregular 10 94 994 46 2 0.253 faster 0 3.291687e+06 3.291689e+06 2.307
16 irregular 10 95 995 45 3 0.570 faster 0 3.291690e+06 3.291694e+06 3.588
16 irregular 10 96 996 44 3 0.253 slower 1 3.291695e+06 3.291699e+06 3.680
16 irregular 10 97 997 76 2.500000e+00 0.472 slower 0 3.291700e+06 3.291703e+06 3.426
16 irregular 10 98 998 43 2 0.222 slower 1 3.291705e+06 3.291708e+06 2.631
16 irregular 10 99 999 44 1.500000e+00 0.241 slower 1 3.291710e+06 3.291712e+06 2.323
16 irregular 10 100 1000 76 1.500000e+00 0.553 slower 0 3.291714e+06 3.291716e+06 1.956
