subNo condition blockNo trialNo trialID currentFrequency cueTargetInterval randomPreCueInterval response responseAccuracy startTime responseTime RT
9 irregular 1 1 1 71 1 0.321 faster 1 1.981014e+06 1.981016e+06 1.791
9 irregular 1 2 2 49 3 0.474 slower 1 1.981017e+06 1.981021e+06 3.896
9 irregular 1 3 3 51 3 0.248 slower 1 1.981022e+06 1.981026e+06 3.782
9 irregular 1 4 4 69 2 0.557 faster 1 1.981027e+06 1.981030e+06 2.824
9 irregular 1 5 5 53 2.500000e+00 0.560 faster 0 1.981031e+06 1.981034e+06 3.078
9 irregular 1 6 6 51 1.500000e+00 0.339 faster 0 1.981036e+06 1.981038e+06 2.076
9 irregular 1 7 7 71 3 0.475 faster 1 1.981039e+06 1.981043e+06 3.704
9 irregular 1 8 8 71 1.500000e+00 0.169 faster 1 1.981044e+06 1.981046e+06 2.089
9 irregular 1 9 9 69 1.500000e+00 0.546 faster 1 1.981047e+06 1.981050e+06 2.111
9 irregular 1 10 10 69 2 0.369 faster 1 1.981051e+06 1.981053e+06 2.742
9 irregular 1 11 11 53 2.500000e+00 0.478 slower 1 1.981054e+06 1.981058e+06 3.408
9 irregular 1 12 12 53 1 0.125 faster 0 1.981059e+06 1.981061e+06 2.351
9 irregular 1 13 13 51 1.500000e+00 0.364 slower 1 1.981062e+06 1.981064e+06 2.371
9 irregular 1 14 14 53 2 0.526 slower 1 1.981066e+06 1.981069e+06 3.199
9 irregular 1 15 15 53 1 0.440 slower 1 1.981070e+06 1.981072e+06 2.454
9 irregular 1 16 16 54 2.500000e+00 0.258 slower 1 1.981073e+06 1.981076e+06 3.216
9 irregular 1 17 17 54 2 0.165 faster 0 1.981077e+06 1.981080e+06 2.994
9 irregular 1 18 18 67 1.500000e+00 0.302 faster 1 1.981082e+06 1.981085e+06 2.697
9 irregular 1 19 19 54 2 0.549 faster 0 1.981086e+06 1.981090e+06 4.360
9 irregular 1 20 20 53 1.500000e+00 0.407 slower 1 1.981091e+06 1.981094e+06 3.215
9 irregular 1 21 21 67 2 0.538 faster 1 1.981096e+06 1.981099e+06 3.049
9 irregular 1 22 22 66 3 0.346 faster 1 1.981100e+06 1.981105e+06 4.554
9 irregular 1 23 23 66 1.500000e+00 0.422 slower 0 1.981106e+06 1.981109e+06 2.589
9 irregular 1 24 24 53 3 0.191 slower 1 1.981109e+06 1.981113e+06 3.845
9 irregular 1 25 25 54 1.500000e+00 0.167 slower 1 1.981114e+06 1.981117e+06 2.584
9 irregular 1 26 26 66 3 0.474 slower 0 1.981118e+06 1.981122e+06 3.896
9 irregular 1 27 27 67 2 0.237 slower 0 1.981123e+06 1.981127e+06 3.734
9 irregular 1 28 28 68 2 0.415 faster 1 1.981128e+06 1.981132e+06 3.697
9 irregular 1 29 29 53 2 0.570 faster 0 1.981133e+06 1.981136e+06 2.906
9 irregular 1 30 30 52 1.500000e+00 0.114 faster 0 1.981137e+06 1.981140e+06 2.996
9 irregular 1 31 31 51 3 0.352 slower 1 1.981141e+06 1.981145e+06 3.760
9 irregular 1 32 32 69 2.500000e+00 0.394 faster 1 1.981146e+06 1.981149e+06 3.395
9 irregular 1 33 33 68 2.500000e+00 0.130 faster 1 1.981151e+06 1.981154e+06 3.174
9 irregular 1 34 34 68 3 0.303 slower 0 1.981155e+06 1.981159e+06 4.276
9 irregular 1 35 35 69 3 0.402 faster 1 1.981160e+06 1.981164e+06 4.144
9 irregular 1 36 36 52 2 0.356 slower 1 1.981165e+06 1.981169e+06 3.279
9 irregular 1 37 37 68 2.500000e+00 0.470 slower 0 1.981170e+06 1.981173e+06 3.628
9 irregular 1 38 38 51 2.500000e+00 0.302 slower 1 1.981174e+06 1.981178e+06 4.206
9 irregular 1 39 39 68 3 0.299 faster 1 1.981180e+06 1.981184e+06 4.005
9 irregular 1 40 40 52 1.500000e+00 0.344 faster 0 1.981185e+06 1.981187e+06 2.453
9 irregular 1 41 41 69 1 0.170 faster 1 1.981188e+06 1.981190e+06 1.960
9 irregular 1 42 42 52 2 0.508 faster 0 1.981191e+06 1.981194e+06 2.817
9 irregular 1 43 43 69 2 0.563 faster 1 1.981196e+06 1.981199e+06 2.643
9 irregular 1 44 44 51 1.500000e+00 0.428 faster 0 1.981200e+06 1.981202e+06 2.069
9 irregular 1 45 45 50 2.500000e+00 0.359 faster 0 1.981203e+06 1.981207e+06 3.854
9 irregular 1 46 46 49 1.500000e+00 0.194 faster 0 1.981208e+06 1.981211e+06 2.232
9 irregular 1 47 47 72 2.500000e+00 0.524 faster 1 1.981212e+06 1.981216e+06 3.665
9 irregular 1 48 48 71 1 0.173 faster 1 1.981217e+06 1.981219e+06 1.883
9 irregular 1 49 49 71 3 0.313 faster 1 1.981220e+06 1.981224e+06 4.158
9 irregular 1 50 50 50 3 0.351 slower 1 1.981226e+06 1.981231e+06 4.817
9 irregular 1 51 51 50 1 0.249 slower 1 1.981232e+06 1.981234e+06 1.762
9 irregular 1 52 52 69 1 0.345 faster 1 1.981235e+06 1.981237e+06 1.749
9 irregular 1 53 53 69 1 0.524 faster 1 1.981238e+06 1.981240e+06 2.067
9 irregular 1 54 54 68 2 0.598 faster 1 1.981242e+06 1.981245e+06 3.036
9 irregular 1 55 55 52 2.500000e+00 0.590 slower 1 1.981247e+06 1.981250e+06 3.409
9 irregular 1 56 56 67 2.500000e+00 0.486 faster 1 1.981252e+06 1.981255e+06 3.456
9 irregular 1 57 57 53 1 0.191 faster 0 1.981256e+06 1.981258e+06 1.573
9 irregular 1 58 58 68 1 0.308 faster 1 1.981259e+06 1.981260e+06 1.738
9 irregular 1 59 59 67 1.500000e+00 0.493 slower 0 1.981262e+06 1.981264e+06 2.609
9 irregular 1 60 60 52 3 0.418 slower 1 1.981265e+06 1.981269e+06 3.834
9 irregular 1 61 61 52 3 0.279 faster 0 1.981270e+06 1.981274e+06 4.399
9 irregular 1 62 62 51 1 0.508 slower 1 1.981276e+06 1.981278e+06 2.099
9 irregular 1 63 63 68 2.500000e+00 0.503 slower 0 1.981279e+06 1.981283e+06 3.606
9 irregular 1 64 64 51 2 0.173 slower 1 1.981284e+06 1.981287e+06 2.757
9 irregular 1 65 65 69 3 0.569 faster 1 1.981288e+06 1.981292e+06 3.753
9 irregular 1 66 66 52 3 0.213 slower 1 1.981294e+06 1.981298e+06 4.103
9 irregular 1 67 67 68 1.500000e+00 0.293 faster 1 1.981299e+06 1.981302e+06 2.790
9 irregular 1 68 68 67 2 0.383 faster 1 1.981303e+06 1.981305e+06 2.722
9 irregular 1 69 69 53 1 0.312 faster 0 1.981306e+06 1.981308e+06 1.464
9 irregular 1 70 70 68 1 0.343 faster 1 1.981309e+06 1.981311e+06 1.486
9 irregular 1 71 71 53 3 0.309 slower 1 1.981312e+06 1.981316e+06 3.757
9 irregular 1 72 72 53 1 0.242 slower 1 1.981317e+06 1.981319e+06 1.828
9 irregular 1 73 73 66 2.500000e+00 0.451 faster 1 1.981320e+06 1.981324e+06 3.866
9 irregular 1 74 74 66 3 0.317 faster 1 1.981325e+06 1.981329e+06 4.090
9 irregular 1 75 75 55 1.500000e+00 0.144 faster 0 1.981330e+06 1.981333e+06 2.771
9 irregular 1 76 76 54 2 0.128 faster 0 1.981334e+06 1.981338e+06 3.519
9 irregular 1 77 77 53 1 0.222 faster 0 1.981339e+06 1.981341e+06 2.284
9 irregular 1 78 78 52 2.500000e+00 0.323 slower 1 1.981343e+06 1.981346e+06 3.375
9 irregular 1 79 79 68 1 0.102 faster 1 1.981347e+06 1.981349e+06 1.851
9 irregular 1 80 80 67 1.500000e+00 0.220 faster 1 1.981349e+06 1.981352e+06 2.179
9 irregular 1 81 81 67 1.500000e+00 0.544 slower 0 1.981353e+06 1.981356e+06 2.665
9 irregular 1 82 82 52 2 0.159 slower 1 1.981357e+06 1.981360e+06 3.299
9 irregular 1 83 83 53 2.500000e+00 0.277 faster 0 1.981361e+06 1.981364e+06 3.407
9 irregular 1 84 84 52 2.500000e+00 0.310 faster 0 1.981366e+06 1.981370e+06 3.801
9 irregular 1 85 85 69 2 0.262 faster 1 1.981371e+06 1.981374e+06 2.992
9 irregular 1 86 86 69 2.500000e+00 0.106 faster 1 1.981375e+06 1.981378e+06 3.132
9 irregular 1 87 87 52 3 0.544 slower 1 1.981379e+06 1.981383e+06 3.719
9 irregular 1 88 88 68 2 0.256 faster 1 1.981385e+06 1.981388e+06 3.065
9 irregular 1 89 89 53 1.500000e+00 0.264 faster 0 1.981389e+06 1.981391e+06 2.236
9 irregular 1 90 90 68 2.500000e+00 0.498 faster 1 1.981393e+06 1.981396e+06 3.365
9 irregular 1 91 91 68 3 0.357 faster 1 1.981397e+06 1.981401e+06 4.290
9 irregular 1 92 92 53 2 0.298 faster 0 1.981402e+06 1.981405e+06 3.024
9 irregular 1 93 93 68 1.500000e+00 0.341 slower 0 1.981407e+06 1.981410e+06 2.457
9 irregular 1 94 94 69 1 0.228 faster 1 1.981411e+06 1.981413e+06 1.695
9 irregular 1 95 95 51 1 0.171 slower 1 1.981414e+06 1.981416e+06 2.137
9 irregular 1 96 96 52 2.500000e+00 0.342 slower 1 1.981417e+06 1.981421e+06 3.575
9 irregular 1 97 97 52 1 0.232 slower 1 1.981423e+06 1.981425e+06 2.085
9 irregular 1 98 98 67 2.500000e+00 0.294 faster 1 1.981427e+06 1.981430e+06 3.345
9 irregular 1 99 99 67 1.500000e+00 0.555 faster 1 1.981432e+06 1.981434e+06 2.343
9 irregular 1 100 100 66 1 0.471 none 2 1.981435e+06 1.981439e+06 3.999
9 regular 2 1 101 54 2 0.493 faster 0 1.981492e+06 1.981495e+06 2.671
9 regular 2 2 102 53 2 0.159 faster 0 1.981495e+06 1.981498e+06 2.545
9 regular 2 3 103 52 2 0.216 faster 0 1.981499e+06 1.981501e+06 2.565
9 regular 2 4 104 69 2 0.524 faster 1 1.981503e+06 1.981506e+06 2.544
9 regular 2 5 105 69 2 0.302 faster 1 1.981507e+06 1.981510e+06 2.548
9 regular 2 6 106 52 2 0.569 faster 0 1.981511e+06 1.981513e+06 2.478
9 regular 2 7 107 69 2 0.586 faster 1 1.981515e+06 1.981518e+06 2.876
9 regular 2 8 108 51 2 0.477 faster 0 1.981519e+06 1.981521e+06 2.565
9 regular 2 9 109 50 2 0.241 faster 0 1.981522e+06 1.981525e+06 2.657
9 regular 2 10 110 71 2 0.520 faster 1 1.981526e+06 1.981529e+06 3.198
9 regular 2 11 111 50 2 0.270 faster 0 1.981530e+06 1.981533e+06 3.081
9 regular 2 12 112 49 2 0.549 slower 1 1.981534e+06 1.981538e+06 3.236
9 regular 2 13 113 49 2 0.174 slower 1 1.981538e+06 1.981542e+06 3.385
9 regular 2 14 114 50 2 0.475 slower 1 1.981543e+06 1.981546e+06 3.034
9 regular 2 15 115 50 2 0.509 slower 1 1.981548e+06 1.981551e+06 3.347
9 regular 2 16 116 69 2 0.149 faster 1 1.981552e+06 1.981555e+06 3.681
9 regular 2 17 117 51 2 0.553 slower 1 1.981557e+06 1.981560e+06 3.288
9 regular 2 18 118 68 2 0.483 faster 1 1.981562e+06 1.981565e+06 3.021
9 regular 2 19 119 68 2 0.144 faster 1 1.981565e+06 1.981568e+06 2.820
9 regular 2 20 120 67 2 0.495 faster 1 1.981569e+06 1.981572e+06 2.868
9 regular 2 21 121 67 2 0.332 slower 0 1.981573e+06 1.981577e+06 3.577
9 regular 2 22 122 68 2 0.393 faster 1 1.981578e+06 1.981581e+06 2.836
9 regular 2 23 123 53 2 0.381 faster 0 1.981582e+06 1.981586e+06 3.216
9 regular 2 24 124 52 2 0.192 faster 0 1.981587e+06 1.981590e+06 2.598
9 regular 2 25 125 51 2 0.205 faster 0 1.981590e+06 1.981593e+06 2.495
9 regular 2 26 126 50 2 0.186 faster 0 1.981594e+06 1.981596e+06 2.475
9 regular 2 27 127 49 2 0.408 slower 1 1.981597e+06 1.981600e+06 2.871
9 regular 2 28 128 71 2 0.391 faster 1 1.981601e+06 1.981604e+06 2.974
9 regular 2 29 129 70 2 0.387 faster 1 1.981606e+06 1.981608e+06 2.620
9 regular 2 30 130 70 2 0.318 faster 1 1.981609e+06 1.981612e+06 2.623
9 regular 2 31 131 51 2 0.135 slower 1 1.981613e+06 1.981616e+06 2.841
9 regular 2 32 132 69 2 0.391 faster 1 1.981617e+06 1.981620e+06 3.081
9 regular 2 33 133 52 2 0.342 slower 1 1.981621e+06 1.981624e+06 2.853
9 regular 2 34 134 52 2 0.267 slower 1 1.981625e+06 1.981628e+06 2.775
9 regular 2 35 135 67 2 0.392 faster 1 1.981629e+06 1.981632e+06 3.352
9 regular 2 36 136 53 2 0.247 faster 0 1.981634e+06 1.981637e+06 2.987
9 regular 2 37 137 68 2 0.503 faster 1 1.981638e+06 1.981642e+06 4.163
9 regular 2 38 138 67 2 0.591 faster 1 1.981644e+06 1.981647e+06 3.003
9 regular 2 39 139 53 2 0.345 faster 0 1.981648e+06 1.981651e+06 3.141
9 regular 2 40 140 52 2 0.128 slower 1 1.981652e+06 1.981655e+06 2.690
9 regular 2 41 141 67 2 0.431 slower 0 1.981656e+06 1.981659e+06 2.850
9 regular 2 42 142 52 2 0.303 slower 1 1.981660e+06 1.981663e+06 2.885
9 regular 2 43 143 52 2 0.214 slower 1 1.981664e+06 1.981666e+06 2.678
9 regular 2 44 144 53 2 0.556 slower 1 1.981668e+06 1.981671e+06 2.803
9 regular 2 45 145 67 2 0.374 faster 1 1.981673e+06 1.981676e+06 3.324
9 regular 2 46 146 54 2 0.270 slower 1 1.981677e+06 1.981680e+06 2.980
9 regular 2 47 147 66 2 0.453 faster 1 1.981681e+06 1.981685e+06 3.241
9 regular 2 48 148 65 2 0.310 faster 1 1.981686e+06 1.981689e+06 2.531
9 regular 2 49 149 65 2 0.260 faster 1 1.981690e+06 1.981693e+06 2.597
9 regular 2 50 150 56 2 0.532 faster 0 1.981694e+06 1.981697e+06 3.059
9 regular 2 51 151 55 2 0.413 slower 1 1.981698e+06 1.981701e+06 3.090
9 regular 2 52 152 65 2 0.594 slower 0 1.981703e+06 1.981706e+06 3.146
9 regular 2 53 153 54 2 0.575 slower 1 1.981708e+06 1.981711e+06 2.664
9 regular 2 54 154 65 2 0.220 faster 1 1.981712e+06 1.981715e+06 3.326
9 regular 2 55 155 55 2 0.476 faster 0 1.981716e+06 1.981719e+06 3.375
9 regular 2 56 156 66 2 0.264 faster 1 1.981721e+06 1.981725e+06 3.698
9 regular 2 57 157 55 2 0.417 slower 1 1.981726e+06 1.981729e+06 3.340
9 regular 2 58 158 65 2 0.573 slower 0 1.981730e+06 1.981733e+06 2.989
9 regular 2 59 159 66 2 0.350 faster 1 1.981735e+06 1.981738e+06 2.945
9 regular 2 60 160 55 2 0.427 slower 1 1.981739e+06 1.981742e+06 2.999
9 regular 2 61 161 55 2 0.428 slower 1 1.981743e+06 1.981746e+06 2.658
9 regular 2 62 162 64 2 0.309 slower 0 1.981747e+06 1.981750e+06 2.592
9 regular 2 63 163 65 2 0.164 faster 1 1.981751e+06 1.981754e+06 3.705
9 regular 2 64 164 55 2 0.333 slower 1 1.981755e+06 1.981760e+06 4.106
9 regular 2 65 165 64 2 0.284 slower 0 1.981760e+06 1.981763e+06 2.756
9 regular 2 66 166 65 2 0.263 slower 0 1.981764e+06 1.981767e+06 2.867
9 regular 2 67 167 66 2 0.249 faster 1 1.981768e+06 1.981771e+06 2.813
9 regular 2 68 168 54 2 0.554 faster 0 1.981774e+06 1.981777e+06 2.607
9 regular 2 69 169 67 2 0.406 faster 1 1.981779e+06 1.981782e+06 2.900
9 regular 2 70 170 54 2 0.338 faster 0 1.981783e+06 1.981785e+06 2.687
9 regular 2 71 171 67 2 0.475 faster 1 1.981787e+06 1.981791e+06 3.392
9 regular 2 72 172 53 2 0.155 slower 1 1.981791e+06 1.981795e+06 3.864
9 regular 2 73 173 54 2 0.506 faster 0 1.981797e+06 1.981800e+06 2.742
9 regular 2 74 174 67 2 0.204 faster 1 1.981801e+06 1.981804e+06 3.044
9 regular 2 75 175 67 2 0.269 faster 1 1.981806e+06 1.981808e+06 2.646
9 regular 2 76 176 54 2 0.296 slower 1 1.981810e+06 1.981813e+06 3.708
9 regular 2 77 177 66 2 0.454 faster 1 1.981815e+06 1.981818e+06 2.832
9 regular 2 78 178 65 2 0.509 faster 1 1.981820e+06 1.981822e+06 2.777
9 regular 2 79 179 65 2 0.196 faster 1 1.981823e+06 1.981826e+06 2.969
9 regular 2 80 180 64 2 0.481 faster 1 1.981827e+06 1.981830e+06 2.615
9 regular 2 81 181 56 2 0.280 slower 1 1.981831e+06 1.981835e+06 3.726
9 regular 2 82 182 57 2 0.174 slower 1 1.981837e+06 1.981840e+06 3.099
9 regular 2 83 183 63 2 0.549 slower 0 1.981841e+06 1.981844e+06 2.795
9 regular 2 84 184 56 2 0.470 faster 0 1.981846e+06 1.981849e+06 2.889
9 regular 2 85 185 65 2 0.467 faster 1 1.981850e+06 1.981853e+06 3.024
9 regular 2 86 186 56 2 0.483 faster 0 1.981855e+06 1.981858e+06 3.421
9 regular 2 87 187 65 2 0.381 faster 1 1.981860e+06 1.981862e+06 2.908
9 regular 2 88 188 55 2 0.474 slower 1 1.981864e+06 1.981867e+06 3.212
9 regular 2 89 189 64 2 0.284 slower 0 1.981868e+06 1.981870e+06 2.790
9 regular 2 90 190 65 2 0.137 slower 0 1.981871e+06 1.981875e+06 3.270
9 regular 2 91 191 54 2 0.284 faster 0 1.981875e+06 1.981878e+06 2.830
9 regular 2 92 192 53 2 0.580 faster 0 1.981880e+06 1.981883e+06 2.655
9 regular 2 93 193 52 2 0.507 slower 1 1.981884e+06 1.981886e+06 2.600
9 regular 2 94 194 68 2 0.173 faster 1 1.981888e+06 1.981891e+06 3.145
9 regular 2 95 195 67 2 0.155 slower 0 1.981893e+06 1.981895e+06 2.517
9 regular 2 96 196 68 2 0.473 slower 0 1.981897e+06 1.981899e+06 2.430
9 regular 2 97 197 51 2 0.566 slower 1 1.981901e+06 1.981904e+06 3.309
9 regular 2 98 198 51 2 0.401 slower 1 1.981906e+06 1.981910e+06 4.080
9 regular 2 99 199 68 2 0.195 faster 1 1.981912e+06 1.981914e+06 2.900
9 regular 2 100 200 68 2 0.553 faster 1 1.981916e+06 1.981920e+06 3.860
9 irregular 3 1 201 53 2.500000e+00 0.337 slower 1 1.981994e+06 1.981998e+06 3.372
9 irregular 3 2 202 53 1.500000e+00 0.232 slower 1 1.981999e+06 1.982001e+06 2.752
9 irregular 3 3 203 54 1 0.378 faster 0 1.982004e+06 1.982006e+06 2.245
9 irregular 3 4 204 53 3 0.423 slower 1 1.982008e+06 1.982012e+06 3.897
9 irregular 3 5 205 67 2 0.583 faster 1 1.982013e+06 1.982016e+06 2.851
9 irregular 3 6 206 54 3 0.161 slower 1 1.982017e+06 1.982022e+06 4.397
9 irregular 3 7 207 66 1.500000e+00 0.380 slower 0 1.982023e+06 1.982025e+06 2.598
9 irregular 3 8 208 53 3 0.296 slower 1 1.982026e+06 1.982030e+06 3.692
9 irregular 3 9 209 54 1 0.408 faster 0 1.982032e+06 1.982034e+06 1.851
9 irregular 3 10 210 67 3 0.581 faster 1 1.982035e+06 1.982039e+06 4.163
9 irregular 3 11 211 67 1 0.196 faster 1 1.982040e+06 1.982042e+06 2.112
9 irregular 3 12 212 54 2 0.292 slower 1 1.982043e+06 1.982046e+06 3.534
9 irregular 3 13 213 66 2 0.247 faster 1 1.982048e+06 1.982051e+06 3.273
9 irregular 3 14 214 55 3 0.528 slower 1 1.982053e+06 1.982057e+06 3.926
9 irregular 3 15 215 65 1 0.397 faster 1 1.982058e+06 1.982060e+06 2.622
9 irregular 3 16 216 64 1.500000e+00 0.597 faster 1 1.982062e+06 1.982064e+06 2.694
9 irregular 3 17 217 64 2 0.499 slower 0 1.982066e+06 1.982069e+06 3.548
9 irregular 3 18 218 65 2.500000e+00 0.103 faster 1 1.982070e+06 1.982073e+06 3.555
9 irregular 3 19 219 56 2 0.586 faster 0 1.982075e+06 1.982077e+06 2.722
9 irregular 3 20 220 55 1 0.254 faster 0 1.982079e+06 1.982081e+06 2.016
9 irregular 3 21 221 54 1.500000e+00 0.317 slower 1 1.982083e+06 1.982086e+06 2.932
9 irregular 3 22 222 54 2.500000e+00 0.437 slower 1 1.982087e+06 1.982090e+06 3.447
9 irregular 3 23 223 65 2.500000e+00 0.598 slower 0 1.982091e+06 1.982095e+06 3.457
9 irregular 3 24 224 66 2 0.561 faster 1 1.982096e+06 1.982099e+06 2.820
9 irregular 3 25 225 66 1.500000e+00 0.285 faster 1 1.982100e+06 1.982102e+06 2.500
9 irregular 3 26 226 65 1.500000e+00 0.451 faster 1 1.982105e+06 1.982107e+06 2.399
9 irregular 3 27 227 65 2 0.162 faster 1 1.982108e+06 1.982111e+06 2.770
9 irregular 3 28 228 64 1 0.534 faster 1 1.982112e+06 1.982115e+06 2.079
9 irregular 3 29 229 64 1.500000e+00 0.141 slower 0 1.982116e+06 1.982119e+06 2.645
9 irregular 3 30 230 55 1 0.428 slower 1 1.982121e+06 1.982123e+06 1.860
9 irregular 3 31 231 56 2.500000e+00 0.304 faster 0 1.982124e+06 1.982127e+06 3.373
9 irregular 3 32 232 65 1 0.533 faster 1 1.982128e+06 1.982130e+06 1.902
9 irregular 3 33 233 65 1 0.552 faster 1 1.982131e+06 1.982133e+06 1.626
9 irregular 3 34 234 64 3 0.509 faster 1 1.982134e+06 1.982139e+06 4.799
9 irregular 3 35 235 56 3 0.124 slower 1 1.982140e+06 1.982144e+06 4.048
9 irregular 3 36 236 63 3 0.303 faster 1 1.982145e+06 1.982149e+06 4.426
9 irregular 3 37 237 57 2 0.386 slower 1 1.982150e+06 1.982153e+06 3.201
9 irregular 3 38 238 62 2.500000e+00 0.448 faster 1 1.982155e+06 1.982158e+06 3.526
9 irregular 3 39 239 62 3 0.298 faster 1 1.982159e+06 1.982163e+06 3.947
9 irregular 3 40 240 61 1.500000e+00 0.178 faster 1 1.982164e+06 1.982166e+06 2.421
9 irregular 3 41 241 59 1.500000e+00 0.377 slower 1 1.982167e+06 1.982170e+06 3.162
9 irregular 3 42 242 61 3 0.295 faster 1 1.982171e+06 1.982175e+06 3.816
9 irregular 3 43 243 59 2.500000e+00 0.395 faster 0 1.982176e+06 1.982180e+06 4.106
9 irregular 3 44 244 58 1.500000e+00 0.358 faster 0 1.982181e+06 1.982184e+06 2.717
9 irregular 3 45 245 63 2.500000e+00 0.191 faster 1 1.982186e+06 1.982189e+06 3.403
9 irregular 3 46 246 62 2 0.270 faster 1 1.982190e+06 1.982193e+06 3.287
9 irregular 3 47 247 58 3 0.158 faster 0 1.982194e+06 1.982199e+06 4.483
9 irregular 3 48 248 57 2 0.324 faster 0 1.982200e+06 1.982203e+06 2.885
9 irregular 3 49 249 56 1 0.418 faster 0 1.982204e+06 1.982206e+06 1.796
9 irregular 3 50 250 55 2 0.139 slower 1 1.982207e+06 1.982210e+06 3.274
9 irregular 3 51 251 64 2.500000e+00 0.395 faster 1 1.982211e+06 1.982214e+06 3.285
9 irregular 3 52 252 56 2 0.124 slower 1 1.982215e+06 1.982218e+06 2.996
9 irregular 3 53 253 57 1.500000e+00 0.384 slower 1 1.982220e+06 1.982222e+06 2.568
9 irregular 3 54 254 57 1 0.333 slower 1 1.982223e+06 1.982226e+06 2.402
9 irregular 3 55 255 58 1 0.327 slower 1 1.982227e+06 1.982229e+06 1.826
9 irregular 3 56 256 58 1 0.170 slower 1 1.982229e+06 1.982232e+06 2.114
9 irregular 3 57 257 61 2 0.178 faster 1 1.982232e+06 1.982235e+06 2.669
9 irregular 3 58 258 59 1.500000e+00 0.158 slower 1 1.982236e+06 1.982239e+06 2.658
9 irregular 3 59 259 61 2.500000e+00 0.560 faster 1 1.982240e+06 1.982243e+06 3.271
9 irregular 3 60 260 61 1 0.523 faster 1 1.982244e+06 1.982246e+06 1.818
9 irregular 3 61 261 61 3 0.570 slower 0 1.982248e+06 1.982252e+06 4.216
9 irregular 3 62 262 62 1.500000e+00 0.494 slower 0 1.982253e+06 1.982256e+06 3.237
9 irregular 3 63 263 57 2.500000e+00 0.531 faster 0 1.982258e+06 1.982262e+06 4.188
9 irregular 3 64 264 56 3 0.499 slower 1 1.982263e+06 1.982267e+06 3.833
9 irregular 3 65 265 64 1.500000e+00 0.273 faster 1 1.982268e+06 1.982271e+06 2.880
9 irregular 3 66 266 57 3 0.540 slower 1 1.982272e+06 1.982277e+06 4.861
9 irregular 3 67 267 63 2.500000e+00 0.325 slower 0 1.982278e+06 1.982282e+06 3.663
9 irregular 3 68 268 56 1 0.385 slower 1 1.982283e+06 1.982286e+06 2.792
9 irregular 3 69 269 63 1 0.230 faster 1 1.982287e+06 1.982289e+06 2.142
9 irregular 3 70 270 63 2.500000e+00 0.399 faster 1 1.982291e+06 1.982294e+06 3.314
9 irregular 3 71 271 62 3 0.284 faster 1 1.982295e+06 1.982299e+06 4.218
9 irregular 3 72 272 58 2.500000e+00 0.389 faster 0 1.982300e+06 1.982304e+06 3.501
9 irregular 3 73 273 63 2.500000e+00 0.338 faster 1 1.982305e+06 1.982308e+06 3.368
9 irregular 3 74 274 58 2.500000e+00 0.182 faster 0 1.982309e+06 1.982312e+06 3.383
9 irregular 3 75 275 63 3 0.372 faster 1 1.982313e+06 1.982318e+06 4.840
9 irregular 3 76 276 63 1.500000e+00 0.445 faster 1 1.982319e+06 1.982323e+06 3.392
9 irregular 3 77 277 58 2 0.540 slower 1 1.982324e+06 1.982327e+06 3.040
9 irregular 3 78 278 58 1 0.387 slower 1 1.982328e+06 1.982330e+06 1.800
9 irregular 3 79 279 61 2 0.474 slower 0 1.982331e+06 1.982334e+06 2.923
9 irregular 3 80 280 62 1 0.372 faster 1 1.982336e+06 1.982338e+06 2.568
9 irregular 3 81 281 58 2.500000e+00 0.594 faster 0 1.982339e+06 1.982343e+06 3.628
9 irregular 3 82 282 57 2 0.456 slower 1 1.982345e+06 1.982348e+06 2.910
9 irregular 3 83 283 58 3 0.325 slower 1 1.982349e+06 1.982353e+06 3.705
9 irregular 3 84 284 58 1.500000e+00 0.136 faster 0 1.982354e+06 1.982357e+06 2.246
9 irregular 3 85 285 57 2.500000e+00 0.224 faster 0 1.982358e+06 1.982362e+06 4.871
9 irregular 3 86 286 56 1.500000e+00 0.469 faster 0 1.982364e+06 1.982368e+06 3.424
9 irregular 3 87 287 65 1.500000e+00 0.117 faster 1 1.982368e+06 1.982371e+06 2.258
9 irregular 3 88 288 56 3 0.159 slower 1 1.982371e+06 1.982376e+06 4.254
9 irregular 3 89 289 64 1 0.489 faster 1 1.982377e+06 1.982379e+06 1.914
9 irregular 3 90 290 57 2 0.290 slower 1 1.982381e+06 1.982384e+06 3.207
9 irregular 3 91 291 57 1.500000e+00 0.222 slower 1 1.982385e+06 1.982388e+06 2.565
9 irregular 3 92 292 58 2.500000e+00 0.480 slower 1 1.982389e+06 1.982392e+06 3.567
9 irregular 3 93 293 62 2 0.526 faster 1 1.982394e+06 1.982397e+06 2.945
9 irregular 3 94 294 59 2 0.412 slower 1 1.982398e+06 1.982401e+06 3.141
9 irregular 3 95 295 61 2.500000e+00 0.541 slower 0 1.982402e+06 1.982406e+06 4.226
9 irregular 3 96 296 62 2 0.289 faster 1 1.982407e+06 1.982410e+06 2.594
9 irregular 3 97 297 59 1.500000e+00 0.318 faster 0 1.982411e+06 1.982413e+06 2.032
9 irregular 3 98 298 62 1 0.184 faster 1 1.982414e+06 1.982416e+06 1.963
9 irregular 3 99 299 62 3 0.278 faster 1 1.982417e+06 1.982422e+06 5.007
9 irregular 3 100 300 61 3 0.442 slower 0 1.982423e+06 1.982427e+06 4.143
9 regular 4 1 301 58 1 0.333 slower 1 1.982573e+06 1.982575e+06 2.204
9 regular 4 2 302 62 1 0.275 faster 1 1.982576e+06 1.982578e+06 1.801
9 regular 4 3 303 59 1 0.188 slower 1 1.982579e+06 1.982581e+06 1.877
9 regular 4 4 304 61 1 0.219 slower 0 1.982582e+06 1.982584e+06 2.381
9 regular 4 5 305 62 1 0.458 faster 1 1.982585e+06 1.982587e+06 1.806
9 regular 4 6 306 59 1 0.260 slower 1 1.982588e+06 1.982590e+06 2.156
9 regular 4 7 307 61 1 0.115 faster 1 1.982591e+06 1.982593e+06 2.230
9 regular 4 8 308 61 1 0.457 faster 1 1.982594e+06 1.982596e+06 1.852
9 regular 4 9 309 59 1 0.228 slower 1 1.982597e+06 1.982599e+06 1.893
9 regular 4 10 310 59 1 0.119 slower 1 1.982599e+06 1.982601e+06 1.943
9 regular 4 11 311 59 1 0.228 slower 1 1.982602e+06 1.982604e+06 2.207
9 regular 4 12 312 59 1 0.190 faster 0 1.982605e+06 1.982607e+06 1.952
9 regular 4 13 313 58 1 0.193 slower 1 1.982608e+06 1.982610e+06 2.077
9 regular 4 14 314 58 1 0.578 slower 1 1.982611e+06 1.982613e+06 1.764
9 regular 4 15 315 59 1 0.346 slower 1 1.982614e+06 1.982616e+06 1.579
9 regular 4 16 316 61 1 0.287 faster 1 1.982616e+06 1.982618e+06 1.968
9 regular 4 17 317 59 1 0.472 slower 1 1.982620e+06 1.982621e+06 1.793
9 regular 4 18 318 61 1 0.245 slower 0 1.982622e+06 1.982624e+06 2.212
9 regular 4 19 319 58 1 0.281 slower 1 1.982625e+06 1.982627e+06 1.666
9 regular 4 20 320 59 1 0.197 slower 1 1.982628e+06 1.982630e+06 2.131
9 regular 4 21 321 59 1 0.121 slower 1 1.982631e+06 1.982633e+06 1.895
9 regular 4 22 322 61 1 0.479 faster 1 1.982634e+06 1.982635e+06 1.722
9 regular 4 23 323 61 1 0.325 faster 1 1.982636e+06 1.982638e+06 1.732
9 regular 4 24 324 61 1 0.285 faster 1 1.982639e+06 1.982641e+06 1.774
9 regular 4 25 325 59 1 0.522 faster 0 1.982642e+06 1.982644e+06 1.688
9 regular 4 26 326 58 1 0.276 slower 1 1.982645e+06 1.982646e+06 1.709
9 regular 4 27 327 61 1 0.412 slower 0 1.982647e+06 1.982649e+06 1.533
9 regular 4 28 328 58 1 0.312 slower 1 1.982650e+06 1.982652e+06 1.898
9 regular 4 29 329 62 1 0.334 slower 0 1.982654e+06 1.982656e+06 1.889
9 regular 4 30 330 63 1 0.542 faster 1 1.982657e+06 1.982660e+06 3.209
9 regular 4 31 331 62 1 0.267 slower 0 1.982661e+06 1.982663e+06 1.863
9 regular 4 32 332 63 1 0.113 faster 1 1.982664e+06 1.982666e+06 2.615
9 regular 4 33 333 63 1 0.295 faster 1 1.982667e+06 1.982669e+06 1.611
9 regular 4 34 334 62 1 0.111 faster 1 1.982670e+06 1.982671e+06 1.673
9 regular 4 35 335 62 1 0.524 faster 1 1.982672e+06 1.982674e+06 1.492
9 regular 4 36 336 61 1 0.504 faster 1 1.982675e+06 1.982676e+06 1.469
9 regular 4 37 337 59 1 0.513 slower 1 1.982678e+06 1.982680e+06 2.172
9 regular 4 38 338 59 1 0.465 slower 1 1.982681e+06 1.982682e+06 1.513
9 regular 4 39 339 59 1 0.114 slower 1 1.982683e+06 1.982685e+06 1.520
9 regular 4 40 340 59 1 0.390 faster 0 1.982686e+06 1.982687e+06 1.507
9 regular 4 41 341 62 1 0.458 faster 1 1.982688e+06 1.982690e+06 1.401
9 regular 4 42 342 62 1 0.451 faster 1 1.982691e+06 1.982692e+06 1.326
9 regular 4 43 343 61 1 0.126 slower 0 1.982693e+06 1.982695e+06 2.196
9 regular 4 44 344 58 1 0.381 slower 1 1.982696e+06 1.982698e+06 1.840
9 regular 4 45 345 58 1 0.368 slower 1 1.982699e+06 1.982701e+06 1.595
9 regular 4 46 346 61 1 0.505 slower 0 1.982702e+06 1.982703e+06 1.817
9 regular 4 47 347 58 1 0.436 faster 0 1.982705e+06 1.982706e+06 1.578
9 regular 4 48 348 57 1 0.452 slower 1 1.982708e+06 1.982710e+06 1.883
9 regular 4 49 349 57 1 0.165 slower 1 1.982711e+06 1.982713e+06 2.073
9 regular 4 50 350 58 1 0.591 slower 1 1.982714e+06 1.982716e+06 2.008
9 regular 4 51 351 62 1 0.361 slower 0 1.982717e+06 1.982720e+06 2.180
9 regular 4 52 352 57 1 0.409 faster 0 1.982721e+06 1.982723e+06 2.470
9 regular 4 53 353 64 1 0.560 faster 1 1.982724e+06 1.982726e+06 1.550
9 regular 4 54 354 63 1 0.261 faster 1 1.982727e+06 1.982729e+06 1.794
9 regular 4 55 355 63 1 0.178 faster 1 1.982729e+06 1.982731e+06 1.690
9 regular 4 56 356 62 1 0.321 faster 1 1.982732e+06 1.982734e+06 1.559
9 regular 4 57 357 62 1 0.254 faster 1 1.982734e+06 1.982736e+06 1.537
9 regular 4 58 358 61 1 0.507 slower 0 1.982738e+06 1.982740e+06 2.322
9 regular 4 59 359 62 1 0.411 slower 0 1.982741e+06 1.982743e+06 1.916
9 regular 4 60 360 57 1 0.512 slower 1 1.982745e+06 1.982748e+06 3.451
9 regular 4 61 361 57 1 0.107 slower 1 1.982749e+06 1.982751e+06 1.929
9 regular 4 62 362 58 1 0.378 faster 0 1.982752e+06 1.982753e+06 1.630
9 regular 4 63 363 57 1 0.223 faster 0 1.982754e+06 1.982756e+06 1.466
9 regular 4 64 364 64 1 0.557 faster 1 1.982757e+06 1.982759e+06 1.752
9 regular 4 65 365 56 1 0.458 faster 0 1.982760e+06 1.982762e+06 1.940
9 regular 4 66 366 55 1 0.456 slower 1 1.982763e+06 1.982765e+06 1.740
9 regular 4 67 367 64 1 0.163 slower 0 1.982766e+06 1.982767e+06 1.408
9 regular 4 68 368 55 1 0.339 slower 1 1.982768e+06 1.982770e+06 1.636
9 regular 4 69 369 55 1 0.453 slower 1 1.982771e+06 1.982772e+06 1.435
9 regular 4 70 370 56 1 0.365 faster 0 1.982774e+06 1.982776e+06 2.035
9 regular 4 71 371 65 1 0.401 slower 0 1.982778e+06 1.982780e+06 2.564
9 regular 4 72 372 54 1 0.162 slower 1 1.982782e+06 1.982783e+06 1.517
9 regular 4 73 373 66 1 0.589 faster 1 1.982785e+06 1.982786e+06 1.791
9 regular 4 74 374 55 1 0.583 slower 1 1.982788e+06 1.982790e+06 2.077
9 regular 4 75 375 55 1 0.564 slower 1 1.982791e+06 1.982793e+06 1.910
9 regular 4 76 376 56 1 0.255 faster 0 1.982794e+06 1.982796e+06 2.086
9 regular 4 77 377 55 1 0.545 faster 0 1.982797e+06 1.982798e+06 1.418
9 regular 4 78 378 54 1 0.126 slower 1 1.982799e+06 1.982801e+06 1.909
9 regular 4 79 379 66 1 0.225 faster 1 1.982802e+06 1.982804e+06 1.715
9 regular 4 80 380 55 1 0.490 slower 1 1.982805e+06 1.982807e+06 2.425
9 regular 4 81 381 65 1 0.589 faster 1 1.982809e+06 1.982811e+06 1.760
9 regular 4 82 382 56 1 0.468 faster 0 1.982812e+06 1.982814e+06 2.158
9 regular 4 83 383 55 1 0.218 faster 0 1.982815e+06 1.982817e+06 2.061
9 regular 4 84 384 66 1 0.145 faster 1 1.982818e+06 1.982820e+06 2.257
9 regular 4 85 385 66 1 0.500 faster 1 1.982821e+06 1.982823e+06 2.031
9 regular 4 86 386 65 1 0.354 faster 1 1.982824e+06 1.982827e+06 2.363
9 regular 4 87 387 55 1 0.183 slower 1 1.982828e+06 1.982830e+06 1.795
9 regular 4 88 388 56 1 0.563 slower 1 1.982831e+06 1.982833e+06 1.729
9 regular 4 89 389 56 1 0.386 slower 1 1.982834e+06 1.982836e+06 1.662
9 regular 4 90 390 63 1 0.445 faster 1 1.982837e+06 1.982838e+06 1.717
9 regular 4 91 391 63 1 0.554 faster 1 1.982840e+06 1.982841e+06 1.806
9 regular 4 92 392 62 1 0.225 faster 1 1.982842e+06 1.982844e+06 1.755
9 regular 4 93 393 62 1 0.343 faster 1 1.982845e+06 1.982847e+06 1.964
9 regular 4 94 394 61 1 0.466 faster 1 1.982849e+06 1.982850e+06 1.750
9 regular 4 95 395 61 1 0.458 faster 1 1.982851e+06 1.982853e+06 1.809
9 regular 4 96 396 61 1 0.417 faster 1 1.982854e+06 1.982856e+06 1.720
9 regular 4 97 397 61 1 0.118 slower 0 1.982857e+06 1.982858e+06 1.602
9 regular 4 98 398 62 1 0.534 slower 0 1.982859e+06 1.982862e+06 2.018
9 regular 4 99 399 63 1 0.439 faster 1 1.982863e+06 1.982865e+06 1.772
9 regular 4 100 400 58 1 0.576 faster 0 1.982867e+06 1.982868e+06 1.466
9 irregular 5 1 401 63 1 0.349 faster 1 1.982895e+06 1.982897e+06 1.642
9 irregular 5 2 402 63 2 0.517 slower 0 1.982898e+06 1.982901e+06 3.531
9 irregular 5 3 403 56 2.500000e+00 0.122 slower 1 1.982902e+06 1.982906e+06 3.368
9 irregular 5 4 404 57 1.500000e+00 0.140 slower 1 1.982907e+06 1.982909e+06 2.173
9 irregular 5 5 405 57 2 0.493 slower 1 1.982910e+06 1.982913e+06 2.800
9 irregular 5 6 406 62 1.500000e+00 0.562 faster 1 1.982914e+06 1.982916e+06 2.062
9 irregular 5 7 407 62 3 0.356 slower 0 1.982917e+06 1.982922e+06 4.670
9 irregular 5 8 408 57 1 0.551 slower 1 1.982923e+06 1.982925e+06 1.864
9 irregular 5 9 409 62 3 0.189 faster 1 1.982926e+06 1.982931e+06 4.416
9 irregular 5 10 410 58 1.500000e+00 0.180 slower 1 1.982932e+06 1.982934e+06 2.591
9 irregular 5 11 411 61 1 0.154 slower 0 1.982935e+06 1.982937e+06 1.661
9 irregular 5 12 412 62 2 0.270 faster 1 1.982938e+06 1.982940e+06 2.898
9 irregular 5 13 413 62 2.500000e+00 0.163 faster 1 1.982942e+06 1.982945e+06 3.117
9 irregular 5 14 414 59 1.500000e+00 0.577 faster 0 1.982946e+06 1.982948e+06 1.972
9 irregular 5 15 415 58 3 0.366 faster 0 1.982949e+06 1.982954e+06 4.582
9 irregular 5 16 416 57 1 0.266 slower 1 1.982956e+06 1.982958e+06 2.013
9 irregular 5 17 417 57 3 0.165 slower 1 1.982958e+06 1.982962e+06 3.840
9 irregular 5 18 418 58 2.500000e+00 0.259 slower 1 1.982963e+06 1.982966e+06 3.247
9 irregular 5 19 419 62 1.500000e+00 0.253 slower 0 1.982967e+06 1.982970e+06 2.276
9 irregular 5 20 420 57 1.500000e+00 0.537 slower 1 1.982971e+06 1.982973e+06 2.320
9 irregular 5 21 421 62 2.500000e+00 0.103 faster 1 1.982974e+06 1.982977e+06 3.501
9 irregular 5 22 422 58 2.500000e+00 0.185 faster 0 1.982978e+06 1.982982e+06 3.288
9 irregular 5 23 423 63 2 0.392 faster 1 1.982983e+06 1.982985e+06 2.818
9 irregular 5 24 424 62 1 0.472 faster 1 1.982987e+06 1.982988e+06 1.974
9 irregular 5 25 425 62 1.500000e+00 0.272 faster 1 1.982989e+06 1.982992e+06 2.546
9 irregular 5 26 426 61 2.500000e+00 0.578 faster 1 1.982993e+06 1.982997e+06 3.544
9 irregular 5 27 427 61 2 0.480 slower 0 1.982998e+06 1.983002e+06 3.308
9 irregular 5 28 428 62 3 0.139 faster 1 1.983003e+06 1.983007e+06 4.461
9 irregular 5 29 429 61 1 0.201 faster 1 1.983008e+06 1.983010e+06 1.996
9 irregular 5 30 430 61 1.500000e+00 0.565 slower 0 1.983012e+06 1.983015e+06 3.171
9 irregular 5 31 431 62 3 0.399 slower 0 1.983016e+06 1.983021e+06 4.394
9 irregular 5 32 432 57 1.500000e+00 0.234 faster 0 1.983022e+06 1.983024e+06 2.233
9 irregular 5 33 433 56 3 0.594 slower 1 1.983026e+06 1.983029e+06 3.745
9 irregular 5 34 434 63 2 0.197 slower 0 1.983030e+06 1.983033e+06 2.847
9 irregular 5 35 435 64 3 0.503 slower 0 1.983034e+06 1.983038e+06 3.929
9 irregular 5 36 436 55 2 0.184 slower 1 1.983039e+06 1.983043e+06 3.525
9 irregular 5 37 437 65 1.500000e+00 0.475 faster 1 1.983044e+06 1.983047e+06 2.229
9 irregular 5 38 438 64 2.500000e+00 0.528 faster 1 1.983048e+06 1.983051e+06 3.411
9 irregular 5 39 439 56 2.500000e+00 0.569 slower 1 1.983053e+06 1.983057e+06 3.853
9 irregular 5 40 440 57 2 0.461 slower 1 1.983058e+06 1.983061e+06 2.728
9 irregular 5 41 441 57 3 0.109 slower 1 1.983062e+06 1.983066e+06 4.554
9 irregular 5 42 442 58 1 0.135 slower 1 1.983067e+06 1.983069e+06 2.059
9 irregular 5 43 443 62 1 0.404 faster 1 1.983071e+06 1.983073e+06 2.193
9 irregular 5 44 444 59 1.500000e+00 0.413 faster 0 1.983075e+06 1.983077e+06 2.710
9 irregular 5 45 445 58 1 0.356 faster 0 1.983080e+06 1.983082e+06 1.795
9 irregular 5 46 446 63 3 0.510 faster 1 1.983083e+06 1.983087e+06 3.720
9 irregular 5 47 447 57 1.500000e+00 0.297 faster 0 1.983088e+06 1.983091e+06 2.120
9 irregular 5 48 448 64 2.500000e+00 0.405 faster 1 1.983092e+06 1.983095e+06 3.503
9 irregular 5 49 449 63 1.500000e+00 0.379 faster 1 1.983097e+06 1.983100e+06 3.053
9 irregular 5 50 450 63 1.500000e+00 0.534 slower 0 1.983101e+06 1.983104e+06 2.645
9 irregular 5 51 451 56 2.500000e+00 0.331 slower 1 1.983105e+06 1.983108e+06 3.827
9 irregular 5 52 452 57 1 0.143 faster 0 1.983110e+06 1.983113e+06 2.748
9 irregular 5 53 453 56 3 0.489 slower 1 1.983114e+06 1.983118e+06 3.906
9 irregular 5 54 454 64 2 0.404 faster 1 1.983119e+06 1.983121e+06 2.683
9 irregular 5 55 455 57 1 0.131 faster 0 1.983122e+06 1.983124e+06 1.845
9 irregular 5 56 456 56 2 0.290 slower 1 1.983125e+06 1.983128e+06 3.032
9 irregular 5 57 457 56 2.500000e+00 0.406 slower 1 1.983129e+06 1.983133e+06 3.412
9 irregular 5 58 458 57 2.500000e+00 0.304 faster 0 1.983134e+06 1.983137e+06 3.493
9 irregular 5 59 459 56 1.500000e+00 0.586 faster 0 1.983138e+06 1.983141e+06 2.299
9 irregular 5 60 460 65 2.500000e+00 0.535 faster 1 1.983142e+06 1.983145e+06 3.228
9 irregular 5 61 461 65 2 0.423 faster 1 1.983147e+06 1.983150e+06 2.681
9 irregular 5 62 462 56 1.500000e+00 0.581 faster 0 1.983151e+06 1.983153e+06 2.389
9 irregular 5 63 463 65 2.500000e+00 0.254 faster 1 1.983154e+06 1.983157e+06 3.192
9 irregular 5 64 464 65 1.500000e+00 0.377 faster 1 1.983159e+06 1.983161e+06 2.294
9 irregular 5 65 465 64 2.500000e+00 0.164 faster 1 1.983162e+06 1.983165e+06 3.321
9 irregular 5 66 466 64 1.500000e+00 0.579 faster 1 1.983167e+06 1.983169e+06 2.268
9 irregular 5 67 467 57 1 0.449 slower 1 1.983170e+06 1.983172e+06 2.005
9 irregular 5 68 468 63 3 0.477 faster 1 1.983173e+06 1.983177e+06 3.875
9 irregular 5 69 469 62 1 0.475 slower 0 1.983178e+06 1.983180e+06 2.065
9 irregular 5 70 470 57 2.500000e+00 0.345 slower 1 1.983181e+06 1.983185e+06 3.747
9 irregular 5 71 471 57 3 0.150 slower 1 1.983186e+06 1.983190e+06 3.885
9 irregular 5 72 472 58 3 0.301 slower 1 1.983191e+06 1.983195e+06 4.003
9 irregular 5 73 473 58 2 0.531 slower 1 1.983196e+06 1.983199e+06 2.990
9 irregular 5 74 474 61 2 0.141 faster 1 1.983200e+06 1.983203e+06 3.189
9 irregular 5 75 475 61 1 0.144 faster 1 1.983204e+06 1.983206e+06 2.430
9 irregular 5 76 476 59 2.500000e+00 0.241 slower 1 1.983207e+06 1.983212e+06 4.684
9 irregular 5 77 477 59 2 0.509 slower 1 1.983213e+06 1.983216e+06 2.884
9 irregular 5 78 478 61 3 0.159 faster 1 1.983217e+06 1.983221e+06 3.881
9 irregular 5 79 479 59 3 0.494 faster 0 1.983222e+06 1.983226e+06 3.921
9 irregular 5 80 480 58 3 0.152 slower 1 1.983227e+06 1.983231e+06 4.088
9 irregular 5 81 481 61 1 0.507 faster 1 1.983232e+06 1.983234e+06 2.029
9 irregular 5 82 482 61 1.500000e+00 0.323 slower 0 1.983235e+06 1.983239e+06 3.234
9 irregular 5 83 483 62 3 0.392 faster 1 1.983240e+06 1.983243e+06 3.668
9 irregular 5 84 484 61 1 0.403 faster 1 1.983244e+06 1.983246e+06 1.809
9 irregular 5 85 485 59 1.500000e+00 0.250 faster 0 1.983247e+06 1.983249e+06 2.199
9 irregular 5 86 486 58 3 0.251 slower 1 1.983251e+06 1.983255e+06 3.826
9 irregular 5 87 487 59 2 0.450 slower 1 1.983256e+06 1.983259e+06 2.882
9 irregular 5 88 488 61 2.500000e+00 0.259 slower 0 1.983260e+06 1.983263e+06 3.117
9 irregular 5 89 489 58 1 0.302 slower 1 1.983265e+06 1.983267e+06 2.066
9 irregular 5 90 490 61 2.500000e+00 0.295 faster 1 1.983268e+06 1.983271e+06 3.007
9 irregular 5 91 491 61 3 0.171 faster 1 1.983272e+06 1.983276e+06 4.213
9 irregular 5 92 492 61 2 0.486 faster 1 1.983278e+06 1.983280e+06 2.729
9 irregular 5 93 493 61 1 0.512 faster 1 1.983282e+06 1.983284e+06 1.887
9 irregular 5 94 494 61 2 0.545 slower 0 1.983285e+06 1.983288e+06 2.527
9 irregular 5 95 495 58 2 0.232 slower 1 1.983289e+06 1.983292e+06 2.643
9 irregular 5 96 496 58 1 0.500 faster 0 1.983294e+06 1.983295e+06 1.794
9 irregular 5 97 497 57 2 0.428 faster 0 1.983297e+06 1.983300e+06 2.549
9 irregular 5 98 498 56 2.500000e+00 0.497 faster 0 1.983301e+06 1.983304e+06 3.591
9 irregular 5 99 499 55 2 0.117 slower 1 1.983306e+06 1.983309e+06 3.128
9 irregular 5 100 500 56 1 0.507 slower 1 1.983311e+06 1.983313e+06 1.974
9 regular 6 1 501 66 1.500000e+00 0.251 faster 1 2.080117e+06 2.080121e+06 3.483
9 regular 6 2 502 54 1.500000e+00 0.400 slower 1 2.080122e+06 2.080124e+06 2.385
9 regular 6 3 503 64 1.500000e+00 0.339 slower 0 2.080125e+06 2.080127e+06 2.166
9 regular 6 4 504 54 1.500000e+00 0.511 slower 1 2.080129e+06 2.080131e+06 2.219
9 regular 6 5 505 54 1.500000e+00 0.581 faster 0 2.080132e+06 2.080135e+06 2.714
9 regular 6 6 506 52 1.500000e+00 0.524 slower 1 2.080136e+06 2.080138e+06 2.256
9 regular 6 7 507 66 1.500000e+00 0.168 slower 0 2.080139e+06 2.080141e+06 2.089
9 regular 6 8 508 68 1.500000e+00 0.146 slower 0 2.080142e+06 2.080145e+06 2.750
9 regular 6 9 509 50 1.500000e+00 0.434 slower 1 2.080146e+06 2.080148e+06 2.188
9 regular 6 10 510 70 1.500000e+00 0.267 faster 1 2.080149e+06 2.080151e+06 2.179
9 regular 6 11 511 52 1.500000e+00 0.217 slower 1 2.080152e+06 2.080154e+06 2.287
9 regular 6 12 512 68 1.500000e+00 0.198 slower 0 2.080155e+06 2.080157e+06 2.277
9 regular 6 13 513 51 1.500000e+00 0.575 slower 1 2.080158e+06 2.080161e+06 2.224
9 regular 6 14 514 68 1.500000e+00 0.207 faster 1 2.080161e+06 2.080164e+06 2.104
9 regular 6 15 515 52 1.500000e+00 0.106 faster 0 2.080164e+06 2.080167e+06 2.713
9 regular 6 16 516 69 1.500000e+00 0.146 faster 1 2.080168e+06 2.080170e+06 2.183
9 regular 6 17 517 52 1.500000e+00 0.584 faster 0 2.080171e+06 2.080174e+06 2.556
9 regular 6 18 518 51 1.500000e+00 0.316 slower 1 2.080175e+06 2.080177e+06 2.128
9 regular 6 19 519 69 1.500000e+00 0.391 faster 1 2.080178e+06 2.080180e+06 2.094
9 regular 6 20 520 68 1.500000e+00 0.119 faster 1 2.080181e+06 2.080183e+06 1.952
9 regular 6 21 521 52 1.500000e+00 0.596 slower 1 2.080184e+06 2.080186e+06 2.537
9 regular 6 22 522 53 1.500000e+00 0.441 faster 0 2.080187e+06 2.080190e+06 2.478
9 regular 6 23 523 52 1.500000e+00 0.161 slower 1 2.080191e+06 2.080193e+06 2.074
9 regular 6 24 524 68 1.500000e+00 0.515 faster 1 2.080194e+06 2.080196e+06 2.402
9 regular 6 25 525 67 1.500000e+00 0.300 slower 0 2.080197e+06 2.080199e+06 2.174
9 regular 6 26 526 68 1.500000e+00 0.595 faster 1 2.080201e+06 2.080204e+06 2.956
9 regular 6 27 527 68 1.500000e+00 0.566 faster 1 2.080205e+06 2.080208e+06 2.661
9 regular 6 28 528 53 1.500000e+00 0.344 faster 0 2.080208e+06 2.080211e+06 2.361
9 regular 6 29 529 68 1.500000e+00 0.585 faster 1 2.080212e+06 2.080214e+06 2.259
9 regular 6 30 530 52 1.500000e+00 0.267 slower 1 2.080215e+06 2.080218e+06 2.759
9 regular 6 31 531 67 1.500000e+00 0.241 faster 1 2.080219e+06 2.080221e+06 2.128
9 regular 6 32 532 67 1.500000e+00 0.505 slower 0 2.080222e+06 2.080225e+06 2.590
9 regular 6 33 533 68 1.500000e+00 0.219 faster 1 2.080226e+06 2.080228e+06 2.122
9 regular 6 34 534 53 1.500000e+00 0.297 faster 0 2.080229e+06 2.080231e+06 2.452
9 regular 6 35 535 52 1.500000e+00 0.139 slower 1 2.080232e+06 2.080234e+06 2.574
9 regular 6 36 536 68 1.500000e+00 0.186 faster 1 2.080235e+06 2.080237e+06 2.005
9 regular 6 37 537 67 1.500000e+00 0.118 faster 1 2.080238e+06 2.080240e+06 1.900
9 regular 6 38 538 53 1.500000e+00 0.326 faster 0 2.080241e+06 2.080243e+06 2.211
9 regular 6 39 539 68 1.500000e+00 0.336 faster 1 2.080244e+06 2.080247e+06 2.555
9 regular 6 40 540 67 1.500000e+00 0.124 faster 1 2.080247e+06 2.080250e+06 2.640
9 regular 6 41 541 67 1.500000e+00 0.161 faster 1 2.080251e+06 2.080253e+06 2.198
9 regular 6 42 542 66 1.500000e+00 0.287 slower 0 2.080254e+06 2.080257e+06 2.850
9 regular 6 43 543 53 1.500000e+00 0.584 slower 1 2.080259e+06 2.080261e+06 2.249
9 regular 6 44 544 53 1.500000e+00 0.401 slower 1 2.080262e+06 2.080265e+06 2.294
9 regular 6 45 545 66 1.500000e+00 0.484 slower 0 2.080266e+06 2.080268e+06 2.050
9 regular 6 46 546 53 1.500000e+00 0.161 slower 1 2.080269e+06 2.080271e+06 2.067
9 regular 6 47 547 67 1.500000e+00 0.131 slower 0 2.080272e+06 2.080274e+06 2.038
9 regular 6 48 548 68 1.500000e+00 0.580 faster 1 2.080275e+06 2.080277e+06 2.078
9 regular 6 49 549 67 1.500000e+00 0.381 faster 1 2.080278e+06 2.080281e+06 2.274
9 regular 6 50 550 67 1.500000e+00 0.311 faster 1 2.080282e+06 2.080284e+06 2.388
9 regular 6 51 551 66 1.500000e+00 0.146 slower 0 2.080285e+06 2.080288e+06 2.342
9 regular 6 52 552 53 1.500000e+00 0.525 slower 1 2.080289e+06 2.080291e+06 2.137
9 regular 6 53 553 67 1.500000e+00 0.239 slower 0 2.080292e+06 2.080294e+06 2.471
9 regular 6 54 554 68 1.500000e+00 0.576 slower 0 2.080295e+06 2.080299e+06 3.329
9 regular 6 55 555 51 1.500000e+00 0.117 slower 1 2.080299e+06 2.080303e+06 3.049
9 regular 6 56 556 52 1.500000e+00 0.533 faster 0 2.080304e+06 2.080307e+06 2.897
9 regular 6 57 557 51 1.500000e+00 0.517 slower 1 2.080308e+06 2.080311e+06 3.044
9 regular 6 58 558 51 1.500000e+00 0.263 slower 1 2.080312e+06 2.080315e+06 2.501
9 regular 6 59 559 52 1.500000e+00 0.209 slower 1 2.080316e+06 2.080318e+06 2.353
9 regular 6 60 560 52 1.500000e+00 0.526 slower 1 2.080319e+06 2.080321e+06 2.070
9 regular 6 61 561 53 1.500000e+00 0.318 slower 1 2.080322e+06 2.080324e+06 2.071
9 regular 6 62 562 53 1.500000e+00 0.217 slower 1 2.080325e+06 2.080327e+06 2.133
9 regular 6 63 563 66 1.500000e+00 0.389 slower 0 2.080328e+06 2.080331e+06 2.433
9 regular 6 64 564 67 1.500000e+00 0.292 faster 1 2.080332e+06 2.080334e+06 2.045
9 regular 6 65 565 53 1.500000e+00 0.600 slower 1 2.080335e+06 2.080338e+06 2.233
9 regular 6 66 566 66 1.500000e+00 0.227 slower 0 2.080339e+06 2.080341e+06 2.175
9 regular 6 67 567 67 1.500000e+00 0.439 faster 1 2.080342e+06 2.080344e+06 2.199
9 regular 6 68 568 67 1.500000e+00 0.358 faster 1 2.080345e+06 2.080348e+06 3.057
9 regular 6 69 569 66 1.500000e+00 0.573 faster 1 2.080350e+06 2.080352e+06 2.143
9 regular 6 70 570 54 1.500000e+00 0.202 faster 0 2.080353e+06 2.080355e+06 2.186
9 regular 6 71 571 53 1.500000e+00 0.450 slower 1 2.080356e+06 2.080358e+06 2.408
9 regular 6 72 572 54 1.500000e+00 0.326 slower 1 2.080359e+06 2.080361e+06 2.136
9 regular 6 73 573 54 1.500000e+00 0.368 slower 1 2.080362e+06 2.080364e+06 2.119
9 regular 6 74 574 55 1.500000e+00 0.258 slower 1 2.080366e+06 2.080368e+06 2.161
9 regular 6 75 575 65 1.500000e+00 0.204 faster 1 2.080369e+06 2.080371e+06 2.577
9 regular 6 76 576 56 1.500000e+00 0.209 faster 0 2.080372e+06 2.080374e+06 2.021
9 regular 6 77 577 65 1.500000e+00 0.471 faster 1 2.080375e+06 2.080378e+06 2.238
9 regular 6 78 578 55 1.500000e+00 0.150 faster 0 2.080378e+06 2.080380e+06 1.976
9 regular 6 79 579 66 1.500000e+00 0.262 faster 1 2.080381e+06 2.080383e+06 2.138
9 regular 6 80 580 65 1.500000e+00 0.321 slower 0 2.080384e+06 2.080387e+06 2.314
9 regular 6 81 581 66 1.500000e+00 0.271 slower 0 2.080388e+06 2.080390e+06 2.153
9 regular 6 82 582 67 1.500000e+00 0.442 slower 0 2.080391e+06 2.080393e+06 2.166
9 regular 6 83 583 52 1.500000e+00 0.413 slower 1 2.080394e+06 2.080396e+06 2.144
9 regular 6 84 584 52 1.500000e+00 0.474 slower 1 2.080397e+06 2.080400e+06 2.741
9 regular 6 85 585 53 1.500000e+00 0.553 faster 0 2.080402e+06 2.080404e+06 2.428
9 regular 6 86 586 68 1.500000e+00 0.586 faster 1 2.080406e+06 2.080408e+06 2.096
9 regular 6 87 587 52 1.500000e+00 0.373 faster 0 2.080410e+06 2.080412e+06 2.017
9 regular 6 88 588 69 1.500000e+00 0.384 faster 1 2.080413e+06 2.080415e+06 2.002
9 regular 6 89 589 52 1.500000e+00 0.139 slower 1 2.080416e+06 2.080419e+06 2.721
9 regular 6 90 590 52 1.500000e+00 0.373 slower 1 2.080420e+06 2.080422e+06 2.040
9 regular 6 91 591 53 1.500000e+00 0.568 slower 1 2.080423e+06 2.080426e+06 2.389
9 regular 6 92 592 67 1.500000e+00 0.338 slower 0 2.080427e+06 2.080430e+06 3.087
9 regular 6 93 593 52 1.500000e+00 0.245 slower 1 2.080431e+06 2.080433e+06 2.416
9 regular 6 94 594 53 1.500000e+00 0.143 slower 1 2.080435e+06 2.080437e+06 2.325
9 regular 6 95 595 67 1.500000e+00 0.477 slower 0 2.080439e+06 2.080441e+06 2.278
9 regular 6 96 596 52 1.500000e+00 0.268 slower 1 2.080442e+06 2.080445e+06 2.853
9 regular 6 97 597 53 1.500000e+00 0.436 slower 1 2.080446e+06 2.080448e+06 2.489
9 regular 6 98 598 53 1.500000e+00 0.272 faster 0 2.080449e+06 2.080451e+06 1.887
9 regular 6 99 599 68 1.500000e+00 0.172 faster 1 2.080452e+06 2.080454e+06 1.800
9 regular 6 100 600 67 1.500000e+00 0.251 faster 1 2.080454e+06 2.080457e+06 2.436
9 irregular 7 1 601 53 1.500000e+00 0.108 slower 1 2.080481e+06 2.080484e+06 3.047
9 irregular 7 2 602 66 1.500000e+00 0.335 faster 1 2.080485e+06 2.080487e+06 2.118
9 irregular 7 3 603 54 3 0.296 faster 0 2.080488e+06 2.080493e+06 4.343
9 irregular 7 4 604 53 2 0.402 slower 1 2.080494e+06 2.080497e+06 3.634
9 irregular 7 5 605 54 1 0.363 slower 1 2.080499e+06 2.080500e+06 1.641
9 irregular 7 6 606 66 1 0.302 faster 1 2.080502e+06 2.080504e+06 1.911
9 irregular 7 7 607 55 1 0.119 faster 0 2.080504e+06 2.080506e+06 1.520
9 irregular 7 8 608 54 2 0.156 faster 0 2.080507e+06 2.080510e+06 2.701
9 irregular 7 9 609 67 2 0.292 faster 1 2.080510e+06 2.080513e+06 2.615
9 irregular 7 10 610 53 1 0.274 slower 1 2.080514e+06 2.080516e+06 2.048
9 irregular 7 11 611 54 2 0.496 faster 0 2.080517e+06 2.080520e+06 2.787
9 irregular 7 12 612 67 1 0.321 faster 1 2.080522e+06 2.080523e+06 1.649
9 irregular 7 13 613 67 1 0.246 faster 1 2.080524e+06 2.080526e+06 1.509
9 irregular 7 14 614 54 3 0.512 slower 1 2.080527e+06 2.080530e+06 3.616
9 irregular 7 15 615 66 2 0.448 slower 0 2.080532e+06 2.080535e+06 3.427
9 irregular 7 16 616 67 2.500000e+00 0.126 slower 0 2.080536e+06 2.080540e+06 3.890
9 irregular 7 17 617 52 1.500000e+00 0.533 faster 0 2.080541e+06 2.080543e+06 1.921
9 irregular 7 18 618 51 2 0.466 faster 0 2.080544e+06 2.080547e+06 3.093
9 irregular 7 19 619 70 3 0.480 faster 1 2.080549e+06 2.080553e+06 4.193
9 irregular 7 20 620 51 1.500000e+00 0.369 slower 1 2.080554e+06 2.080556e+06 2.310
9 irregular 7 21 621 69 3 0.426 slower 0 2.080557e+06 2.080561e+06 3.632
9 irregular 7 22 622 50 2 0.496 slower 1 2.080563e+06 2.080566e+06 2.803
9 irregular 7 23 623 51 2.500000e+00 0.562 slower 1 2.080567e+06 2.080570e+06 3.491
9 irregular 7 24 624 69 1 0.553 faster 1 2.080572e+06 2.080574e+06 2.018
9 irregular 7 25 625 52 1.500000e+00 0.514 faster 0 2.080575e+06 2.080577e+06 1.952
9 irregular 7 26 626 69 2.500000e+00 0.589 faster 1 2.080579e+06 2.080583e+06 4.231
9 irregular 7 27 627 69 3 0.447 faster 1 2.080584e+06 2.080588e+06 4.224
9 irregular 7 28 628 52 1 0.582 faster 0 2.080589e+06 2.080591e+06 1.790
9 irregular 7 29 629 51 2.500000e+00 0.459 slower 1 2.080592e+06 2.080596e+06 3.230
9 irregular 7 30 630 51 1 0.501 none 2 2.080597e+06 2.080601e+06 4.000
9 irregular 7 31 631 51 1.500000e+00 0.416 slower 1 2.080602e+06 2.080604e+06 2.404
9 irregular 7 32 632 68 1 0.273 faster 1 2.080605e+06 2.080607e+06 1.714
9 irregular 7 33 633 52 3 0.346 faster 0 2.080608e+06 2.080612e+06 4.076
9 irregular 7 34 634 69 3 0.180 slower 0 2.080613e+06 2.080618e+06 4.728
9 irregular 7 35 635 70 2 0.329 faster 1 2.080619e+06 2.080622e+06 3.503
9 irregular 7 36 636 69 1.500000e+00 0.187 faster 1 2.080623e+06 2.080625e+06 2.023
9 irregular 7 37 637 51 1 0.287 faster 0 2.080626e+06 2.080628e+06 1.809
9 irregular 7 38 638 70 2.500000e+00 0.293 faster 1 2.080629e+06 2.080633e+06 3.692
9 irregular 7 39 639 51 1.500000e+00 0.406 slower 1 2.080634e+06 2.080637e+06 2.727
9 irregular 7 40 640 51 2.500000e+00 0.102 slower 1 2.080638e+06 2.080641e+06 3.190
9 irregular 7 41 641 68 3 0.382 faster 1 2.080642e+06 2.080645e+06 3.666
9 irregular 7 42 642 52 3 0.276 faster 0 2.080646e+06 2.080650e+06 3.560
9 irregular 7 43 643 69 1 0.446 faster 1 2.080651e+06 2.080653e+06 1.902
9 irregular 7 44 644 52 3 0.235 none 2 2.080654e+06 2.080660e+06 6.000
9 irregular 7 45 645 52 1 0.238 faster 0 2.080661e+06 2.080663e+06 1.757
9 irregular 7 46 646 51 2.500000e+00 0.383 slower 1 2.080664e+06 2.080667e+06 3.543
9 irregular 7 47 647 51 3 0.521 faster 0 2.080668e+06 2.080672e+06 3.659
9 irregular 7 48 648 70 1.500000e+00 0.487 faster 1 2.080673e+06 2.080675e+06 2.033
9 irregular 7 49 649 69 3 0.364 slower 0 2.080676e+06 2.080680e+06 4.057
9 irregular 7 50 650 70 3 0.498 faster 1 2.080681e+06 2.080685e+06 4.068
9 irregular 7 51 651 70 2.500000e+00 0.521 faster 1 2.080687e+06 2.080690e+06 3.017
9 irregular 7 52 652 51 3 0.598 faster 0 2.080691e+06 2.080695e+06 4.004
9 irregular 7 53 653 70 1.500000e+00 0.368 faster 1 2.080696e+06 2.080698e+06 2.243
9 irregular 7 54 654 70 3 0.418 faster 1 2.080699e+06 2.080703e+06 3.666
9 irregular 7 55 655 69 1.500000e+00 0.541 faster 1 2.080704e+06 2.080707e+06 2.298
9 irregular 7 56 656 69 3 0.118 faster 1 2.080707e+06 2.080712e+06 4.180
9 irregular 7 57 657 68 2.500000e+00 0.438 slower 0 2.080713e+06 2.080716e+06 3.238
9 irregular 7 58 658 51 1.500000e+00 0.129 slower 1 2.080718e+06 2.080720e+06 2.161
9 irregular 7 59 659 69 1.500000e+00 0.143 faster 1 2.080721e+06 2.080723e+06 2.532
9 irregular 7 60 660 68 1 0.177 faster 1 2.080724e+06 2.080726e+06 1.586
9 irregular 7 61 661 52 2 0.495 slower 1 2.080727e+06 2.080730e+06 2.795
9 irregular 7 62 662 53 2.500000e+00 0.575 slower 1 2.080731e+06 2.080734e+06 3.170
9 irregular 7 63 663 67 2 0.349 faster 1 2.080735e+06 2.080739e+06 3.103
9 irregular 7 64 664 54 1.500000e+00 0.230 faster 0 2.080739e+06 2.080742e+06 2.120
9 irregular 7 65 665 53 2.500000e+00 0.596 slower 1 2.080743e+06 2.080746e+06 3.211
9 irregular 7 66 666 67 2.500000e+00 0.102 slower 0 2.080747e+06 2.080750e+06 3.144
9 irregular 7 67 667 68 2.500000e+00 0.340 faster 1 2.080751e+06 2.080754e+06 3.094
9 irregular 7 68 668 53 1 0.436 slower 1 2.080755e+06 2.080757e+06 2.125
9 irregular 7 69 669 67 2 0.296 slower 0 2.080758e+06 2.080761e+06 2.710
9 irregular 7 70 670 68 1.500000e+00 0.210 faster 1 2.080762e+06 2.080764e+06 2.159
9 irregular 7 71 671 53 1.500000e+00 0.418 faster 0 2.080765e+06 2.080767e+06 2.121
9 irregular 7 72 672 68 1 0.430 faster 1 2.080768e+06 2.080770e+06 1.528
9 irregular 7 73 673 52 3 0.408 faster 0 2.080771e+06 2.080774e+06 3.397
9 irregular 7 74 674 69 2 0.132 slower 0 2.080776e+06 2.080780e+06 4.190
9 irregular 7 75 675 70 2 0.496 slower 0 2.080781e+06 2.080784e+06 2.633
9 irregular 7 76 676 49 2.500000e+00 0.389 slower 1 2.080785e+06 2.080788e+06 3.020
9 irregular 7 77 677 70 2 0.168 faster 1 2.080789e+06 2.080791e+06 2.621
9 irregular 7 78 678 50 2 0.597 slower 1 2.080792e+06 2.080796e+06 3.251
9 irregular 7 79 679 69 1.500000e+00 0.190 faster 1 2.080796e+06 2.080799e+06 2.263
9 irregular 7 80 680 51 2.500000e+00 0.524 faster 0 2.080800e+06 2.080803e+06 3.442
9 irregular 7 81 681 70 1.500000e+00 0.485 faster 1 2.080805e+06 2.080807e+06 2.037
9 irregular 7 82 682 51 1.500000e+00 0.248 slower 1 2.080807e+06 2.080810e+06 2.235
9 irregular 7 83 683 51 3 0.220 slower 1 2.080811e+06 2.080814e+06 3.621
9 irregular 7 84 684 68 2.500000e+00 0.113 faster 1 2.080815e+06 2.080818e+06 3.064
9 irregular 7 85 685 68 1 0.123 faster 1 2.080819e+06 2.080821e+06 1.766
9 irregular 7 86 686 67 1 0.501 faster 1 2.080822e+06 2.080824e+06 1.772
9 irregular 7 87 687 53 2 0.217 slower 1 2.080824e+06 2.080827e+06 2.721
9 irregular 7 88 688 66 1.500000e+00 0.238 faster 1 2.080828e+06 2.080830e+06 2.073
9 irregular 7 89 689 54 1 0.378 faster 0 2.080831e+06 2.080833e+06 1.659
9 irregular 7 90 690 53 2.500000e+00 0.130 faster 0 2.080834e+06 2.080837e+06 3.191
9 irregular 7 91 691 52 3 0.196 slower 1 2.080838e+06 2.080841e+06 3.760
9 irregular 7 92 692 53 2.500000e+00 0.519 slower 1 2.080843e+06 2.080846e+06 3.724
9 irregular 7 93 693 53 2 0.346 faster 0 2.080847e+06 2.080850e+06 2.385
9 irregular 7 94 694 52 2 0.579 faster 0 2.080851e+06 2.080854e+06 2.746
9 irregular 7 95 695 69 3 0.111 faster 1 2.080855e+06 2.080859e+06 3.915
9 irregular 7 96 696 68 2 0.584 slower 0 2.080860e+06 2.080863e+06 2.805
9 irregular 7 97 697 51 1 0.379 faster 0 2.080864e+06 2.080865e+06 1.603
9 irregular 7 98 698 70 2.500000e+00 0.123 faster 1 2.080866e+06 2.080869e+06 3.096
9 irregular 7 99 699 70 2 0.397 faster 1 2.080870e+06 2.080873e+06 2.522
9 irregular 7 100 700 69 2.500000e+00 0.527 faster 1 2.080875e+06 2.080878e+06 3.151
9 regular 8 1 701 69 3 0.179 faster 1 2.080946e+06 2.080951e+06 4.203
9 regular 8 2 702 52 3 0.335 slower 1 2.080952e+06 2.080955e+06 3.811
9 regular 8 3 703 68 3 0.274 faster 1 2.080957e+06 2.080961e+06 3.973
9 regular 8 4 704 67 3 0.231 slower 0 2.080962e+06 2.080966e+06 4.055
9 regular 8 5 705 52 3 0.420 slower 1 2.080967e+06 2.080970e+06 3.589
9 regular 8 6 706 68 3 0.341 faster 1 2.080972e+06 2.080975e+06 3.546
9 regular 8 7 707 67 3 0.507 faster 1 2.080977e+06 2.080981e+06 3.576
9 regular 8 8 708 53 3 0.148 slower 1 2.080982e+06 2.080986e+06 3.747
9 regular 8 9 709 54 3 0.258 faster 0 2.080987e+06 2.080990e+06 3.651
9 regular 8 10 710 67 3 0.107 faster 1 2.080992e+06 2.080996e+06 3.704
9 regular 8 11 711 53 3 0.276 faster 0 2.080996e+06 2.081001e+06 4.165
9 regular 8 12 712 52 3 0.136 slower 1 2.081001e+06 2.081005e+06 3.705
9 regular 8 13 713 67 3 0.450 slower 0 2.081006e+06 2.081010e+06 3.740
9 regular 8 14 714 52 3 0.290 slower 1 2.081011e+06 2.081015e+06 3.578
9 regular 8 15 715 52 3 0.111 slower 1 2.081016e+06 2.081020e+06 4.103
9 regular 8 16 716 53 3 0.532 faster 0 2.081021e+06 2.081025e+06 3.660
9 regular 8 17 717 68 3 0.303 faster 1 2.081026e+06 2.081030e+06 3.625
9 regular 8 18 718 68 3 0.393 faster 1 2.081031e+06 2.081036e+06 4.248
9 regular 8 19 719 53 3 0.117 slower 1 2.081036e+06 2.081040e+06 3.672
9 regular 8 20 720 53 3 0.167 slower 1 2.081041e+06 2.081045e+06 3.751
9 regular 8 21 721 66 3 0.435 faster 1 2.081046e+06 2.081049e+06 3.752
9 regular 8 22 722 66 3 0.429 faster 1 2.081051e+06 2.081054e+06 3.697
9 regular 8 23 723 65 3 0.261 slower 0 2.081055e+06 2.081059e+06 3.674
9 regular 8 24 724 54 3 0.278 slower 1 2.081060e+06 2.081064e+06 3.875
9 regular 8 25 725 54 3 0.185 slower 1 2.081065e+06 2.081069e+06 3.722
9 regular 8 26 726 65 3 0.270 faster 1 2.081070e+06 2.081074e+06 4.051
9 regular 8 27 727 55 3 0.309 faster 0 2.081075e+06 2.081080e+06 4.368
9 regular 8 28 728 54 3 0.470 slower 1 2.081081e+06 2.081085e+06 3.913
9 regular 8 29 729 65 3 0.129 faster 1 2.081085e+06 2.081089e+06 3.830
9 regular 8 30 730 55 3 0.111 slower 1 2.081090e+06 2.081094e+06 4.258
9 regular 8 31 731 56 3 0.379 slower 1 2.081095e+06 2.081099e+06 4.080
9 regular 8 32 732 56 3 0.547 faster 0 2.081101e+06 2.081104e+06 3.577
9 regular 8 33 733 55 3 0.451 slower 1 2.081106e+06 2.081111e+06 4.592
9 regular 8 34 734 56 3 0.175 slower 1 2.081111e+06 2.081115e+06 3.782
9 regular 8 35 735 56 3 0.497 faster 0 2.081117e+06 2.081121e+06 4.202
9 regular 8 36 736 65 3 0.141 slower 0 2.081122e+06 2.081125e+06 3.719
9 regular 8 37 737 66 3 0.429 slower 0 2.081128e+06 2.081132e+06 4.000
9 regular 8 38 738 67 3 0.147 faster 1 2.081132e+06 2.081136e+06 3.995
9 regular 8 39 739 54 3 0.364 slower 1 2.081138e+06 2.081142e+06 3.704
9 regular 8 40 740 66 3 0.241 slower 0 2.081143e+06 2.081146e+06 3.629
9 regular 8 41 741 67 3 0.190 faster 1 2.081148e+06 2.081152e+06 3.901
9 regular 8 42 742 54 3 0.575 faster 0 2.081153e+06 2.081157e+06 3.883
9 regular 8 43 743 53 3 0.113 faster 0 2.081158e+06 2.081162e+06 3.753
9 regular 8 44 744 68 3 0.204 faster 1 2.081163e+06 2.081166e+06 3.707
9 regular 8 45 745 68 3 0.286 slower 0 2.081167e+06 2.081171e+06 4.063
9 regular 8 46 746 51 3 0.210 slower 1 2.081172e+06 2.081176e+06 3.689
9 regular 8 47 747 68 3 0.495 slower 0 2.081177e+06 2.081181e+06 4.393
9 regular 8 48 748 51 3 0.228 slower 1 2.081183e+06 2.081186e+06 3.652
9 regular 8 49 749 69 3 0.512 faster 1 2.081187e+06 2.081191e+06 3.572
9 regular 8 50 750 68 3 0.260 faster 1 2.081192e+06 2.081196e+06 3.605
9 regular 8 51 751 52 3 0.393 faster 0 2.081197e+06 2.081200e+06 3.725
9 regular 8 52 752 51 3 0.547 slower 1 2.081201e+06 2.081205e+06 3.544
9 regular 8 53 753 68 3 0.504 slower 0 2.081206e+06 2.081210e+06 3.511
9 regular 8 54 754 69 3 0.389 faster 1 2.081211e+06 2.081214e+06 3.584
9 regular 8 55 755 69 3 0.500 faster 1 2.081215e+06 2.081219e+06 3.626
9 regular 8 56 756 68 3 0.463 faster 1 2.081221e+06 2.081226e+06 4.817
9 regular 8 57 757 68 3 0.581 slower 0 2.081227e+06 2.081230e+06 3.499
9 regular 8 58 758 51 3 0.593 faster 0 2.081232e+06 2.081236e+06 3.785
9 regular 8 59 759 50 3 0.318 slower 1 2.081237e+06 2.081241e+06 3.660
9 regular 8 60 760 69 3 0.233 faster 1 2.081242e+06 2.081246e+06 3.745
9 regular 8 61 761 51 3 0.324 faster 0 2.081247e+06 2.081250e+06 3.871
9 regular 8 62 762 70 3 0.545 faster 1 2.081252e+06 2.081255e+06 3.661
9 regular 8 63 763 69 3 0.228 faster 1 2.081256e+06 2.081260e+06 3.759
9 regular 8 64 764 69 3 0.211 slower 0 2.081261e+06 2.081266e+06 4.745
9 regular 8 65 765 70 3 0.279 slower 0 2.081267e+06 2.081271e+06 3.481
9 regular 8 66 766 71 3 0.142 faster 1 2.081271e+06 2.081275e+06 3.750
9 regular 8 67 767 50 3 0.528 slower 1 2.081276e+06 2.081280e+06 3.582
9 regular 8 68 768 70 3 0.413 faster 1 2.081281e+06 2.081284e+06 3.576
9 regular 8 69 769 51 3 0.517 slower 1 2.081286e+06 2.081290e+06 3.624
9 regular 8 70 770 51 3 0.404 faster 0 2.081291e+06 2.081295e+06 3.619
9 regular 8 71 771 70 3 0.325 faster 1 2.081296e+06 2.081300e+06 4.281
9 regular 8 72 772 51 3 0.346 faster 0 2.081301e+06 2.081305e+06 3.678
9 regular 8 73 773 50 3 0.397 faster 0 2.081307e+06 2.081310e+06 3.623
9 regular 8 74 774 49 3 0.344 slower 1 2.081311e+06 2.081315e+06 4.089
9 regular 8 75 775 71 3 0.138 faster 1 2.081317e+06 2.081320e+06 3.775
9 regular 8 76 776 50 3 0.449 slower 1 2.081322e+06 2.081326e+06 3.643
9 regular 8 77 777 70 3 0.111 slower 0 2.081326e+06 2.081330e+06 3.731
9 regular 8 78 778 71 3 0.288 faster 1 2.081331e+06 2.081335e+06 3.661
9 regular 8 79 779 50 3 0.325 faster 0 2.081336e+06 2.081340e+06 4.565
9 regular 8 80 780 49 3 0.584 slower 1 2.081341e+06 2.081345e+06 3.525
9 regular 8 81 781 49 3 0.354 slower 1 2.081346e+06 2.081350e+06 3.368
9 regular 8 82 782 50 3 0.192 slower 1 2.081351e+06 2.081355e+06 3.432
9 regular 8 83 783 50 3 0.481 slower 1 2.081356e+06 2.081360e+06 3.562
9 regular 8 84 784 69 3 0.425 slower 0 2.081361e+06 2.081365e+06 3.352
9 regular 8 85 785 70 3 0.204 faster 1 2.081366e+06 2.081371e+06 4.552
9 regular 8 86 786 50 3 0.123 slower 1 2.081372e+06 2.081375e+06 3.875
9 regular 8 87 787 51 3 0.218 slower 1 2.081376e+06 2.081380e+06 3.994
9 regular 8 88 788 69 3 0.545 slower 0 2.081381e+06 2.081385e+06 3.716
9 regular 8 89 789 50 3 0.389 faster 0 2.081386e+06 2.081390e+06 3.838
9 regular 8 90 790 71 3 0.312 faster 1 2.081391e+06 2.081395e+06 3.800
9 regular 8 91 791 70 3 0.493 faster 1 2.081396e+06 2.081400e+06 4.071
9 regular 8 92 792 50 3 0.266 slower 1 2.081401e+06 2.081404e+06 3.418
9 regular 8 93 793 51 3 0.136 slower 1 2.081405e+06 2.081409e+06 3.508
9 regular 8 94 794 51 3 0.582 slower 1 2.081410e+06 2.081413e+06 3.527
9 regular 8 95 795 68 3 0.236 slower 0 2.081415e+06 2.081419e+06 3.530
9 regular 8 96 796 69 3 0.364 faster 1 2.081420e+06 2.081423e+06 3.624
9 regular 8 97 797 69 3 0.142 faster 1 2.081425e+06 2.081428e+06 3.629
9 regular 8 98 798 68 3 0.288 slower 0 2.081430e+06 2.081434e+06 4.193
9 regular 8 99 799 51 3 0.239 slower 1 2.081435e+06 2.081439e+06 3.724
9 regular 8 100 800 69 3 0.244 slower 0 2.081440e+06 2.081444e+06 3.725
9 irregular 9 1 801 50 1 0.251 slower 1 2.081502e+06 2.081504e+06 1.865
9 irregular 9 2 802 51 2.500000e+00 0.105 faster 0 2.081505e+06 2.081509e+06 4.105
9 irregular 9 3 803 70 3 0.396 faster 1 2.081510e+06 2.081515e+06 5.169
9 irregular 9 4 804 50 3 0.486 faster 0 2.081516e+06 2.081520e+06 3.680
9 irregular 9 5 805 71 2 0.290 faster 1 2.081521e+06 2.081525e+06 4.033
9 irregular 9 6 806 70 3 0.201 faster 1 2.081526e+06 2.081530e+06 4.055
9 irregular 9 7 807 50 1.500000e+00 0.327 faster 0 2.081531e+06 2.081534e+06 3.187
9 irregular 9 8 808 49 2 0.314 slower 1 2.081535e+06 2.081538e+06 2.680
9 irregular 9 9 809 50 1 0.367 slower 1 2.081539e+06 2.081542e+06 2.579
9 irregular 9 10 810 70 1.500000e+00 0.314 faster 1 2.081543e+06 2.081545e+06 2.179
9 irregular 9 11 811 51 2 0.113 slower 1 2.081546e+06 2.081549e+06 2.787
9 irregular 9 12 812 51 1 0.155 slower 1 2.081549e+06 2.081552e+06 2.283
9 irregular 9 13 813 68 1.500000e+00 0.226 faster 1 2.081553e+06 2.081555e+06 2.078
9 irregular 9 14 814 68 1.500000e+00 0.113 faster 1 2.081556e+06 2.081558e+06 2.051
9 irregular 9 15 815 53 1 0.150 faster 0 2.081558e+06 2.081560e+06 1.512
9 irregular 9 16 816 68 2 0.257 faster 1 2.081561e+06 2.081564e+06 2.648
9 irregular 9 17 817 52 3 0.580 slower 1 2.081565e+06 2.081568e+06 3.601
9 irregular 9 18 818 53 1 0.368 slower 1 2.081569e+06 2.081571e+06 1.539
9 irregular 9 19 819 53 2 0.401 faster 0 2.081573e+06 2.081575e+06 2.694
9 irregular 9 20 820 52 3 0.425 slower 1 2.081576e+06 2.081580e+06 3.688
9 irregular 9 21 821 53 3 0.340 slower 1 2.081581e+06 2.081585e+06 3.690
9 irregular 9 22 822 53 1.500000e+00 0.532 faster 0 2.081587e+06 2.081589e+06 2.119
9 irregular 9 23 823 68 2.500000e+00 0.420 faster 1 2.081590e+06 2.081593e+06 3.278
9 irregular 9 24 824 67 3 0.599 slower 0 2.081594e+06 2.081598e+06 4.012
9 irregular 9 25 825 68 2.500000e+00 0.499 faster 1 2.081600e+06 2.081603e+06 3.371
9 irregular 9 26 826 52 1.500000e+00 0.595 faster 0 2.081604e+06 2.081606e+06 2.142
9 irregular 9 27 827 51 1.500000e+00 0.234 faster 0 2.081607e+06 2.081610e+06 2.334
9 irregular 9 28 828 70 1 0.166 faster 1 2.081610e+06 2.081612e+06 1.679
9 irregular 9 29 829 69 1.500000e+00 0.460 faster 1 2.081613e+06 2.081616e+06 2.547
9 irregular 9 30 830 51 2.500000e+00 0.253 slower 1 2.081617e+06 2.081620e+06 2.992
9 irregular 9 31 831 68 2 0.387 slower 0 2.081621e+06 2.081624e+06 2.611
9 irregular 9 32 832 51 2 0.182 slower 1 2.081625e+06 2.081628e+06 2.757
9 irregular 9 33 833 51 1.500000e+00 0.226 slower 1 2.081629e+06 2.081631e+06 2.006
9 irregular 9 34 834 68 1.500000e+00 0.266 slower 0 2.081632e+06 2.081634e+06 2.057
9 irregular 9 35 835 69 3 0.338 slower 0 2.081636e+06 2.081640e+06 4.112
9 irregular 9 36 836 50 1 0.430 slower 1 2.081641e+06 2.081643e+06 1.730
9 irregular 9 37 837 70 1 0.308 faster 1 2.081644e+06 2.081646e+06 1.594
9 irregular 9 38 838 51 2 0.271 slower 1 2.081647e+06 2.081650e+06 3.148
9 irregular 9 39 839 51 2.500000e+00 0.226 slower 1 2.081651e+06 2.081654e+06 3.238
9 irregular 9 40 840 68 1 0.102 faster 1 2.081655e+06 2.081657e+06 1.762
9 irregular 9 41 841 68 2 0.275 faster 1 2.081658e+06 2.081660e+06 2.424
9 irregular 9 42 842 67 1.500000e+00 0.389 faster 1 2.081662e+06 2.081664e+06 2.361
9 irregular 9 43 843 67 3 0.434 slower 0 2.081665e+06 2.081669e+06 3.622
9 irregular 9 44 844 68 1 0.588 slower 0 2.081670e+06 2.081672e+06 1.646
9 irregular 9 45 845 51 1 0.265 slower 1 2.081673e+06 2.081674e+06 1.688
9 irregular 9 46 846 52 1.500000e+00 0.571 slower 1 2.081676e+06 2.081678e+06 2.184
9 irregular 9 47 847 52 2.500000e+00 0.141 slower 1 2.081679e+06 2.081683e+06 3.886
9 irregular 9 48 848 67 1 0.396 slower 0 2.081684e+06 2.081685e+06 1.748
9 irregular 9 49 849 52 3 0.214 faster 0 2.081686e+06 2.081690e+06 3.867
9 irregular 9 50 850 69 1.500000e+00 0.585 slower 0 2.081692e+06 2.081694e+06 1.967
9 irregular 9 51 851 50 3 0.396 slower 1 2.081696e+06 2.081699e+06 3.573
9 irregular 9 52 852 50 1 0.358 slower 1 2.081700e+06 2.081702e+06 1.585
9 irregular 9 53 853 51 2.500000e+00 0.591 slower 1 2.081704e+06 2.081707e+06 3.674
9 irregular 9 54 854 51 2.500000e+00 0.248 slower 1 2.081709e+06 2.081712e+06 3.102
9 irregular 9 55 855 68 2.500000e+00 0.216 slower 0 2.081713e+06 2.081716e+06 3.066
9 irregular 9 56 856 69 2 0.247 faster 1 2.081717e+06 2.081720e+06 2.467
9 irregular 9 57 857 51 1.500000e+00 0.156 faster 0 2.081721e+06 2.081723e+06 2.410
9 irregular 9 58 858 70 1 0.366 faster 1 2.081725e+06 2.081726e+06 1.853
9 irregular 9 59 859 69 2 0.165 faster 1 2.081727e+06 2.081730e+06 2.669
9 irregular 9 60 860 69 1.500000e+00 0.596 faster 1 2.081732e+06 2.081734e+06 2.013
9 irregular 9 61 861 68 2.500000e+00 0.428 slower 0 2.081735e+06 2.081739e+06 3.139
9 irregular 9 62 862 69 1 0.538 faster 1 2.081740e+06 2.081741e+06 1.672
9 irregular 9 63 863 69 2.500000e+00 0.195 faster 1 2.081742e+06 2.081745e+06 3.020
9 irregular 9 64 864 52 2.500000e+00 0.401 faster 0 2.081747e+06 2.081750e+06 3.065
9 irregular 9 65 865 51 2 0.106 faster 0 2.081751e+06 2.081754e+06 2.552
9 irregular 9 66 866 70 2.500000e+00 0.518 faster 1 2.081755e+06 2.081758e+06 3.046
9 irregular 9 67 867 50 2.500000e+00 0.498 faster 0 2.081759e+06 2.081763e+06 3.351
9 irregular 9 68 868 71 1 0.123 faster 1 2.081764e+06 2.081765e+06 1.554
9 irregular 9 69 869 70 1.500000e+00 0.414 faster 1 2.081766e+06 2.081768e+06 2.110
9 irregular 9 70 870 70 2.500000e+00 0.400 slower 0 2.081769e+06 2.081773e+06 3.529
9 irregular 9 71 871 71 2 0.402 faster 1 2.081774e+06 2.081777e+06 2.602
9 irregular 9 72 872 70 2.500000e+00 0.257 faster 1 2.081778e+06 2.081781e+06 2.916
9 irregular 9 73 873 70 2.500000e+00 0.133 faster 1 2.081783e+06 2.081785e+06 2.963
9 irregular 9 74 874 69 3 0.586 faster 1 2.081787e+06 2.081791e+06 3.754
9 irregular 9 75 875 51 1 0.279 faster 0 2.081792e+06 2.081794e+06 1.573
9 irregular 9 76 876 50 1.500000e+00 0.504 faster 0 2.081795e+06 2.081797e+06 1.954
9 irregular 9 77 877 71 1 0.568 faster 1 2.081798e+06 2.081800e+06 1.707
9 irregular 9 78 878 50 3 0.284 slower 1 2.081801e+06 2.081804e+06 3.512
9 irregular 9 79 879 70 3 0.208 slower 0 2.081805e+06 2.081808e+06 3.355
9 irregular 9 80 880 49 3 0.488 slower 1 2.081810e+06 2.081814e+06 3.622
9 irregular 9 81 881 50 1.500000e+00 0.260 slower 1 2.081815e+06 2.081817e+06 2.468
9 irregular 9 82 882 50 2.500000e+00 0.598 slower 1 2.081819e+06 2.081822e+06 3.212
9 irregular 9 83 883 51 3 0.448 slower 1 2.081824e+06 2.081828e+06 3.739
9 irregular 9 84 884 69 3 0.267 faster 1 2.081829e+06 2.081834e+06 4.657
9 irregular 9 85 885 52 1.500000e+00 0.536 faster 0 2.081836e+06 2.081838e+06 2.047
9 irregular 9 86 886 69 1 0.308 faster 1 2.081839e+06 2.081841e+06 1.662
9 irregular 9 87 887 69 2 0.489 faster 1 2.081842e+06 2.081845e+06 2.763
9 irregular 9 88 888 68 2 0.462 faster 1 2.081846e+06 2.081848e+06 2.416
9 irregular 9 89 889 52 2 0.365 faster 0 2.081850e+06 2.081853e+06 2.684
9 irregular 9 90 890 69 3 0.242 slower 0 2.081854e+06 2.081858e+06 4.439
9 irregular 9 91 891 50 1 0.164 slower 1 2.081859e+06 2.081860e+06 1.479
9 irregular 9 92 892 69 2.500000e+00 0.560 slower 0 2.081862e+06 2.081865e+06 3.151
9 irregular 9 93 893 70 3 0.309 faster 1 2.081867e+06 2.081870e+06 3.823
9 irregular 9 94 894 70 2 0.505 faster 1 2.081872e+06 2.081875e+06 2.412
9 irregular 9 95 895 69 1.500000e+00 0.558 faster 1 2.081876e+06 2.081879e+06 2.451
9 irregular 9 96 896 51 2.500000e+00 0.263 faster 0 2.081880e+06 2.081883e+06 3.089
9 irregular 9 97 897 50 2 0.156 slower 1 2.081884e+06 2.081887e+06 2.867
9 irregular 9 98 898 51 2 0.463 slower 1 2.081888e+06 2.081891e+06 2.825
9 irregular 9 99 899 51 2 0.143 slower 1 2.081892e+06 2.081894e+06 2.795
9 irregular 9 100 900 52 3 0.391 slower 1 2.081896e+06 2.081900e+06 3.721
9 regular 10 1 901 52 2.500000e+00 0.473 slower 1 2.081945e+06 2.081949e+06 4.219
9 regular 10 2 902 67 2.500000e+00 0.468 faster 1 2.081951e+06 2.081955e+06 3.243
9 regular 10 3 903 53 2.500000e+00 0.554 faster 0 2.081956e+06 2.081959e+06 3.169
9 regular 10 4 904 52 2.500000e+00 0.165 slower 1 2.081961e+06 2.081964e+06 3.180
9 regular 10 5 905 53 2.500000e+00 0.231 faster 0 2.081965e+06 2.081970e+06 4.083
9 regular 10 6 906 68 2.500000e+00 0.317 faster 1 2.081971e+06 2.081974e+06 3.131
9 regular 10 7 907 52 2.500000e+00 0.523 faster 0 2.081976e+06 2.081979e+06 3.072
9 regular 10 8 908 69 2.500000e+00 0.261 faster 1 2.081980e+06 2.081983e+06 3.127
9 regular 10 9 909 68 2.500000e+00 0.493 slower 0 2.081985e+06 2.081989e+06 3.782
9 regular 10 10 910 51 2.500000e+00 0.571 slower 1 2.081990e+06 2.081993e+06 3.153
9 regular 10 11 911 69 2.500000e+00 0.505 faster 1 2.081995e+06 2.081998e+06 3.059
9 regular 10 12 912 68 2.500000e+00 0.528 faster 1 2.082000e+06 2.082003e+06 3.051
9 regular 10 13 913 68 2.500000e+00 0.478 faster 1 2.082004e+06 2.082008e+06 3.545
9 regular 10 14 914 53 2.500000e+00 0.337 slower 1 2.082009e+06 2.082013e+06 3.639
9 regular 10 15 915 53 2.500000e+00 0.457 faster 0 2.082014e+06 2.082018e+06 3.537
9 regular 10 16 916 68 2.500000e+00 0.477 slower 0 2.082019e+06 2.082023e+06 3.477
9 regular 10 17 917 51 2.500000e+00 0.405 slower 1 2.082025e+06 2.082028e+06 3.108
9 regular 10 18 918 52 2.500000e+00 0.164 faster 0 2.082029e+06 2.082032e+06 3.255
9 regular 10 19 919 51 2.500000e+00 0.280 slower 1 2.082034e+06 2.082037e+06 3.107
9 regular 10 20 920 69 2.500000e+00 0.252 faster 1 2.082038e+06 2.082041e+06 3.333
9 regular 10 21 921 68 2.500000e+00 0.541 slower 0 2.082043e+06 2.082048e+06 4.978
9 regular 10 22 922 51 2.500000e+00 0.237 slower 1 2.082050e+06 2.082053e+06 3.233
9 regular 10 23 923 51 2.500000e+00 0.198 slower 1 2.082054e+06 2.082057e+06 3.135
9 regular 10 24 924 52 2.500000e+00 0.385 slower 1 2.082059e+06 2.082062e+06 3.066
9 regular 10 25 925 52 2.500000e+00 0.558 slower 1 2.082064e+06 2.082067e+06 3.151
9 regular 10 26 926 67 2.500000e+00 0.473 faster 1 2.082069e+06 2.082072e+06 3.115
9 regular 10 27 927 67 2.500000e+00 0.316 slower 0 2.082073e+06 2.082077e+06 3.421
9 regular 10 28 928 52 2.500000e+00 0.245 faster 0 2.082078e+06 2.082082e+06 3.976
9 regular 10 29 929 69 2.500000e+00 0.323 faster 1 2.082083e+06 2.082086e+06 3.239
9 regular 10 30 930 68 2.500000e+00 0.403 slower 0 2.082088e+06 2.082091e+06 3.429
9 regular 10 31 931 69 2.500000e+00 0.276 slower 0 2.082093e+06 2.082096e+06 3.111
9 regular 10 32 932 50 2.500000e+00 0.438 slower 1 2.082097e+06 2.082101e+06 3.130
9 regular 10 33 933 70 2.500000e+00 0.201 faster 1 2.082102e+06 2.082105e+06 3.065
9 regular 10 34 934 69 2.500000e+00 0.152 faster 1 2.082107e+06 2.082110e+06 3.254
9 regular 10 35 935 69 2.500000e+00 0.187 faster 1 2.082111e+06 2.082114e+06 3.154
9 regular 10 36 936 52 2.500000e+00 0.422 faster 0 2.082116e+06 2.082119e+06 3.476
9 regular 10 37 937 51 2.500000e+00 0.545 slower 1 2.082121e+06 2.082126e+06 4.807
9 regular 10 38 938 69 2.500000e+00 0.322 slower 0 2.082127e+06 2.082131e+06 3.784
9 regular 10 39 939 50 2.500000e+00 0.579 slower 1 2.082133e+06 2.082136e+06 3.078
9 regular 10 40 940 69 2.500000e+00 0.327 faster 1 2.082137e+06 2.082141e+06 3.547
9 regular 10 41 941 51 2.500000e+00 0.411 slower 1 2.082142e+06 2.082145e+06 3.308
9 regular 10 42 942 68 2.500000e+00 0.291 slower 0 2.082146e+06 2.082150e+06 3.260
9 regular 10 43 943 69 2.500000e+00 0.389 faster 1 2.082151e+06 2.082155e+06 4.027
9 regular 10 44 944 69 2.500000e+00 0.300 slower 0 2.082157e+06 2.082160e+06 3.214
9 regular 10 45 945 50 2.500000e+00 0.170 slower 1 2.082161e+06 2.082164e+06 3.245
9 regular 10 46 946 51 2.500000e+00 0.457 slower 1 2.082166e+06 2.082170e+06 3.420
9 regular 10 47 947 51 2.500000e+00 0.514 slower 1 2.082171e+06 2.082175e+06 3.141
9 regular 10 48 948 52 2.500000e+00 0.498 slower 1 2.082176e+06 2.082179e+06 3.071
9 regular 10 49 949 68 2.500000e+00 0.218 slower 0 2.082181e+06 2.082184e+06 3.119
9 regular 10 50 950 69 2.500000e+00 0.424 faster 1 2.082185e+06 2.082188e+06 3.204
9 regular 10 51 951 68 2.500000e+00 0.114 faster 1 2.082189e+06 2.082193e+06 3.194
9 regular 10 52 952 68 2.500000e+00 0.346 faster 1 2.082194e+06 2.082197e+06 3.157
9 regular 10 53 953 53 2.500000e+00 0.180 slower 1 2.082199e+06 2.082202e+06 3.017
9 regular 10 54 954 67 2.500000e+00 0.331 slower 0 2.082203e+06 2.082207e+06 3.804
9 regular 10 55 955 52 2.500000e+00 0.408 slower 1 2.082210e+06 2.082213e+06 3.444
9 regular 10 56 956 53 2.500000e+00 0.220 slower 1 2.082214e+06 2.082218e+06 3.301
9 regular 10 57 957 53 2.500000e+00 0.171 faster 0 2.082218e+06 2.082222e+06 3.101
9 regular 10 58 958 52 2.500000e+00 0.120 slower 1 2.082223e+06 2.082226e+06 3.650
9 regular 10 59 959 67 2.500000e+00 0.516 faster 1 2.082228e+06 2.082231e+06 3.234
9 regular 10 60 960 53 2.500000e+00 0.239 faster 0 2.082232e+06 2.082236e+06 3.221
9 regular 10 61 961 68 2.500000e+00 0.176 slower 0 2.082237e+06 2.082240e+06 3.178
9 regular 10 62 962 51 2.500000e+00 0.350 slower 1 2.082242e+06 2.082245e+06 3.295
9 regular 10 63 963 52 2.500000e+00 0.392 slower 1 2.082246e+06 2.082249e+06 3.094
9 regular 10 64 964 68 2.500000e+00 0.143 slower 0 2.082251e+06 2.082254e+06 3.143
9 regular 10 65 965 69 2.500000e+00 0.588 faster 1 2.082256e+06 2.082259e+06 3.110
9 regular 10 66 966 52 2.500000e+00 0.406 faster 0 2.082261e+06 2.082264e+06 2.938
9 regular 10 67 967 51 2.500000e+00 0.571 faster 0 2.082266e+06 2.082269e+06 3.347
9 regular 10 68 968 50 2.500000e+00 0.226 slower 1 2.082270e+06 2.082273e+06 3.032
9 regular 10 69 969 50 2.500000e+00 0.430 slower 1 2.082275e+06 2.082278e+06 3.059
9 regular 10 70 970 69 2.500000e+00 0.305 faster 1 2.082280e+06 2.082283e+06 3.241
9 regular 10 71 971 69 2.500000e+00 0.253 faster 1 2.082285e+06 2.082288e+06 3.132
9 regular 10 72 972 68 2.500000e+00 0.305 faster 1 2.082290e+06 2.082293e+06 3.890
9 regular 10 73 973 52 2.500000e+00 0.327 faster 0 2.082295e+06 2.082298e+06 3.042
9 regular 10 74 974 51 2.500000e+00 0.354 slower 1 2.082300e+06 2.082303e+06 3.170
9 regular 10 75 975 52 2.500000e+00 0.344 slower 1 2.082305e+06 2.082308e+06 3.208
9 regular 10 76 976 52 2.500000e+00 0.147 faster 0 2.082309e+06 2.082312e+06 3.191
9 regular 10 77 977 69 2.500000e+00 0.416 faster 1 2.082314e+06 2.082317e+06 3.084
9 regular 10 78 978 68 2.500000e+00 0.265 slower 0 2.082319e+06 2.082322e+06 3.642
9 regular 10 79 979 69 2.500000e+00 0.177 faster 1 2.082324e+06 2.082327e+06 3.196
9 regular 10 80 980 69 2.500000e+00 0.196 faster 1 2.082329e+06 2.082333e+06 3.233
9 regular 10 81 981 52 2.500000e+00 0.488 slower 1 2.082334e+06 2.082338e+06 3.140
9 regular 10 82 982 68 2.500000e+00 0.367 faster 1 2.082339e+06 2.082342e+06 3.184
9 regular 10 83 983 53 2.500000e+00 0.427 slower 1 2.082344e+06 2.082347e+06 3.182
9 regular 10 84 984 53 2.500000e+00 0.388 faster 0 2.082348e+06 2.082352e+06 3.473
9 regular 10 85 985 52 2.500000e+00 0.335 slower 1 2.082353e+06 2.082357e+06 3.813
9 regular 10 86 986 67 2.500000e+00 0.427 faster 1 2.082358e+06 2.082361e+06 3.308
9 regular 10 87 987 53 2.500000e+00 0.413 faster 0 2.082363e+06 2.082366e+06 3.216
9 regular 10 88 988 68 2.500000e+00 0.166 faster 1 2.082367e+06 2.082370e+06 3.093
9 regular 10 89 989 67 2.500000e+00 0.320 slower 0 2.082372e+06 2.082375e+06 3.473
9 regular 10 90 990 68 2.500000e+00 0.588 faster 1 2.082378e+06 2.082381e+06 3.056
9 regular 10 91 991 52 2.500000e+00 0.249 faster 0 2.082382e+06 2.082386e+06 3.370
9 regular 10 92 992 69 2.500000e+00 0.449 faster 1 2.082388e+06 2.082391e+06 3.172
9 regular 10 93 993 68 2.500000e+00 0.497 faster 1 2.082393e+06 2.082397e+06 3.607
9 regular 10 94 994 52 2.500000e+00 0.231 slower 1 2.082398e+06 2.082401e+06 2.991
9 regular 10 95 995 53 2.500000e+00 0.302 slower 1 2.082403e+06 2.082406e+06 3.268
9 regular 10 96 996 67 2.500000e+00 0.337 faster 1 2.082407e+06 2.082410e+06 3.064
9 regular 10 97 997 66 2.500000e+00 0.118 faster 1 2.082412e+06 2.082415e+06 3.142
9 regular 10 98 998 66 2.500000e+00 0.333 faster 1 2.082416e+06 2.082420e+06 3.171
9 regular 10 99 999 65 2.500000e+00 0.303 faster 1 2.082420e+06 2.082423e+06 2.960
9 regular 10 100 1000 55 2.500000e+00 0.478 faster 0 2.082425e+06 2.082428e+06 2.976
